timestamp;acceleration_x;acceleration_y;acceleration_z;gyroscope_x;gyroscope_y;gyroscope_z
2023-11-22 15:40:08;0.1296;-1.0313;-0.1619;-1.9847;-1.3282;-1.7099
2023-11-22 15:40:08;0.1367;-1.0251;-0.1736;-1.9771;-1.1908;-1.5038
2023-11-22 15:40:09;0.1284;-1.03;-0.1638;-1.687;-0.7481;-0.9771
2023-11-22 15:40:12;0.1262;-1.033;-0.1592;-1.7481;-0.916;-1.6641
2023-11-22 15:40:12;0.1243;-1.0249;-0.1646;-1.9542;-1.1298;-1.2824
2023-11-22 15:40:12;0.1326;-1.0308;-0.1448;-1.8779;-1.1298;-1.7405
2023-11-22 15:40:12;0.1316;-1.0239;-0.1477;-1.9847;-1.1908;-1.5115
2023-11-22 15:40:13;0.1216;-1.0276;-0.1584;-1.7863;-1.3588;-1.5038
2023-11-22 15:40:13;0.123;-1.0266;-0.1521;-2.0;-0.3282;-1.3817
2023-11-22 15:40:13;0.1267;-1.0325;-0.1543;-2.1374;-0.9924;-1.3053
2023-11-22 15:40:13;0.1177;-1.0271;-0.1697;-2.2519;-1.4427;-1.6794
2023-11-22 15:40:14;0.1226;-1.0295;-0.1543;-2.2824;-0.0687;-1.3893
2023-11-22 15:40:14;0.1255;-1.0269;-0.1489;-1.0534;-0.7481;-0.2443
2023-11-22 15:40:14;0.137;-1.0271;-0.145;-2.1985;-1.8702;-0.2137
2023-11-22 15:40:14;0.0972;-1.0332;-0.1626;-2.8397;-1.1756;-0.8397
2023-11-22 15:40:15;0.105;-1.0308;-0.1577;-2.0382;-0.5649;-1.4351
2023-11-22 15:40:15;0.1187;-1.0278;-0.146;-1.5954;-1.9389;-1.3435
2023-11-22 15:40:15;0.1155;-1.0232;-0.1377;-2.8626;-2.1908;-0.3206
2023-11-22 15:40:16;-0.063;-1.02;-0.1094;-13.3817;106.9542;-35.4885
2023-11-22 15:40:16;0.1121;-1.0352;-0.0212;-39.6183;68.3588;-20.7863
2023-11-22 15:40:16;-0.1174;-1.0991;-0.2698;-12.7176;-8.7099;-0.3282
2023-11-22 15:40:17;0.0291;-1.0122;-0.2605;4.3053;-8.6641;-14.916
2023-11-22 15:40:17;0.0505;-1.0613;0.0269;15.7252;-33.2214;6.8473
2023-11-22 15:40:17;0.2644;-0.9866;-0.1165;1.7328;-21.5344;-7.4351
2023-11-22 15:40:18;0.2144;-1.0039;-0.134;0.0382;-12.542;3.916
2023-11-22 15:40:18;0.1221;-1.0371;-0.0652;-2.7557;-7.2977;-1.4504
2023-11-22 15:40:18;0.1558;-1.0234;-0.0999;-1.1374;-0.8168;-0.9389
2023-11-22 15:40:18;0.1277;-1.0222;-0.0769;-1.5191;0.7176;-1.2137
2023-11-22 15:40:18;0.1458;-1.021;-0.0784;-1.6031;-0.2748;-0.8702
2023-11-22 15:40:44;0.324;-0.8333;-0.2012;22.1069;-69.6947;51.1603
2023-11-22 15:40:47;-0.3538;-1.6782;0.4124;76.8702;38.6794;52.9313
2023-11-22 15:40:49;0.4229;-1.3528;-0.3494;31.4809;88.6412;79.1832
2023-11-22 15:40:50;0.3831;-1.1133;-0.0688;66.8626;59.9389;15.3282
2023-11-22 15:40:50;0.2939;-0.9565;-0.1699;1.1756;-14.7939;30.2061
2023-11-22 15:40:51;0.1421;-1.0298;-0.2522;-4.374;-1.9542;-1.6412
2023-11-22 15:40:52;0.1555;-1.0303;-0.2754;-1.4046;-0.9237;-1.6412
2023-11-22 15:40:52;0.1628;-1.0203;-0.2483;4.6947;10.0763;1.1145
2023-11-22 15:40:53;0.1785;-1.0281;-0.2136;-8.8321;-19.1679;-15.2366
2023-11-22 15:40:56;0.1921;-1.0217;-0.2395;-2.5878;1.6031;-0.9618
2023-11-22 15:40:56;0.1917;-1.0215;-0.2463;-2.084;-2.8855;-1.6947
2023-11-22 15:40:57;0.1926;-1.0203;-0.2388;-1.9313;-2.7405;-1.2214
2023-11-22 15:40:57;0.1943;-1.0193;-0.25;-1.8626;-1.2443;-1.313
2023-11-22 15:40:57;0.1946;-1.0217;-0.2417;-1.9847;-1.2443;-1.145
2023-11-22 15:40:57;0.1853;-1.0193;-0.2354;-1.8321;-0.3969;-1.3053
2023-11-22 15:40:58;0.1855;-1.0178;-0.2388;-2.2672;-1.1374;-1.5802
2023-11-22 15:40:58;0.197;-1.02;-0.2502;-1.8397;-1.5267;-1.3511
2023-11-22 15:40:58;0.1863;-1.0237;-0.2546;-2.0534;-1.1145;-1.5038
2023-11-22 15:40:58;0.1885;-1.0127;-0.2393;-1.8855;-0.9389;-1.4885
2023-11-22 15:40:58;0.1921;-1.0137;-0.2468;-1.6641;-0.9466;-1.3053
2023-11-22 15:40:58;0.1826;-1.0176;-0.2393;-2.1374;-0.7786;-1.3817
2023-11-22 15:40:59;0.1936;-1.0168;-0.2356;-1.6107;5.3282;0.0611
2023-11-22 15:40:59;0.178;-1.0259;-0.2544;-0.6031;-0.687;-2.4351
2023-11-22 15:41:00;0.2732;-0.9795;0.0461;39.0992;-26.4046;-13.9389
2023-11-22 15:41:00;0.0437;-0.9146;0.0034;0.458;2.1603;-12.2061
2023-11-22 15:41:00;0.8379;-0.4492;-0.426;-25.6183;-10.6336;12.7786
2023-11-22 15:41:01;0.0093;-1.0496;-0.2563;-28.5191;16.2137;7.5496
2023-11-22 15:41:02;0.1094;-1.0083;-0.3457;11.9008;-14.916;-12.2824
2023-11-22 15:41:02;0.1765;-1.0464;-0.3079;19.5649;7.2595;-22.2595
2023-11-22 15:41:03;-0.542;-0.9387;0.0273;4.4351;76.0763;56.3511
2023-11-22 15:41:04;-0.72;-0.3699;0.3796;-3.5038;-3.6641;-0.9771
2023-11-22 15:41:05;-0.697;-0.3862;0.4097;-1.2366;0.1298;-1.3511
2023-11-22 15:41:08;-0.7034;-0.387;0.4102;-1.9618;-1.1603;-1.1679
2023-11-22 15:41:11;-0.6951;-0.3889;0.4041;-1.9313;-1.0687;-1.2748
2023-11-22 15:41:13;-0.6965;-0.3843;0.4048;-1.5191;-1.4275;-1.458
2023-11-22 15:41:14;-0.6938;-0.3855;0.408;-2.5802;-2.084;-1.6489
2023-11-22 15:41:15;-0.0513;-0.988;-0.0205;11.2061;15.2901;-11.8397
2023-11-22 15:41:16;-0.001;-1.0186;0.0081;3.3435;17.084;-15.687
2023-11-22 15:41:16;0.0608;-0.9773;-0.0962;-9.687;-7.7328;-18.9771
2023-11-22 15:41:16;0.0571;-1.0198;-0.0759;-4.0687;-11.1069;-9.5115
2023-11-22 15:41:16;0.0928;-1.03;-0.0601;-1.8779;-12.6412;-5.6489
2023-11-22 15:41:16;0.1379;-1.0198;-0.0769;-1.6031;-5.916;-4.6183
2023-11-22 15:41:17;0.1357;-1.032;-0.0642;-1.5573;1.8626;-1.7252
2023-11-22 15:41:19;0.113;-1.0195;-0.0742;-1.8244;-0.687;-1.1603
2023-11-22 15:41:20;0.0891;-1.0222;-0.0674;-2.4198;-0.0458;-0.9237
2023-11-22 15:41:24;-0.0588;-0.9685;-0.1482;-19.0;13.4656;-3.1527
2023-11-22 15:41:24;0.1541;-1.0718;-0.0554;-32.2824;2.6641;0.1603
2023-11-22 15:41:26;0.175;-0.9802;-0.1577;0.4656;-105.7405;32.0763
2023-11-22 15:41:26;-0.0957;-0.9792;-0.083;-19.084;-72.0229;-6.7328
2023-11-22 15:41:26;-0.0544;-1.0217;-0.2319;-34.6412;-30.9237;-32.542
2023-11-22 15:41:27;0.084;-1.0527;-0.3894;-19.0153;-0.9389;-20.2901
2023-11-22 15:41:27;0.1951;-0.9893;-0.3281;-6.7328;10.8244;-30.5191
2023-11-22 15:41:27;0.4021;-1.2422;-0.499;9.6641;45.7481;-54.1527
2023-11-22 15:41:27;0.3127;-0.8455;-0.1533;60.6031;-65.542;36.3282
2023-11-22 15:41:28;0.304;-0.8208;-0.074;11.1832;-54.0992;42.2061
2023-11-22 15:41:28;0.0549;-1.0342;0.0261;-8.1908;-49.1603;6.6794
2023-11-22 15:41:28;0.1987;-1.1235;0.002;-52.2443;39.3588;-16.687
2023-11-22 15:41:28;0.177;-0.9802;-0.2832;-40.542;11.9084;-37.626
2023-11-22 15:41:28;0.2119;-1.0867;-0.2363;-13.5496;18.145;-27.0076
2023-11-22 15:41:35;0.1587;-1.2866;0.3455;67.7557;104.7176;23.8626
2023-11-22 15:41:39;0.1477;-1.0374;-0.25;-26.6031;9.3435;-17.5725
2023-11-22 15:41:39;0.1987;-1.0088;-0.2415;-24.6794;24.0229;-24.771
2023-11-22 15:41:39;0.3516;-1.1177;-0.1731;29.145;18.5344;6.6489
2023-11-22 15:41:39;0.3015;-0.9985;-0.395;4.6412;0.9542;46.2061
2023-11-22 15:41:40;0.176;-1.0103;0.1323;-10.6412;-73.0611;-8.8397
2023-11-22 15:41:40;0.1694;-1.0063;-0.2969;-8.3359;-5.2443;-6.9542
2023-11-22 15:41:41;0.074;-1.0525;-0.2314;0.1298;-9.9466;-1.7557
2023-11-22 15:41:41;0.1716;-1.0149;-0.2773;0.2595;-8.4733;0.1221
2023-11-22 15:41:41;0.156;-1.0286;-0.2583;-0.5649;-5.0076;-1.2061
2023-11-22 15:41:41;0.1863;-1.012;-0.3086;-3.4275;-4.5267;-7.229
2023-11-22 15:41:42;0.2268;-1.0173;-0.2139;18.4962;-23.5573;-3.7939
2023-11-22 15:41:42;0.1067;-1.0791;0.0449;14.6947;-14.5878;-1.0382
2023-11-22 15:41:43;0.2749;-1.0786;0.1836;10.7786;-76.1603;3.855
2023-11-22 15:41:43;0.1226;-0.9841;-0.0779;-33.0076;-58.7481;1.5038
2023-11-22 15:41:43;0.0642;-1.1387;-0.0081;8.7481;-7.9542;3.8168
2023-11-22 15:41:43;0.1226;-1.0056;-0.2664;-11.229;-7.1527;1.9008
2023-11-22 15:41:44;0.0566;-1.0276;-0.262;-6.4198;-17.9084;-11.5344
2023-11-22 15:41:44;0.207;-1.0073;-0.3135;6.3969;-13.7328;-14.687
2023-11-22 15:41:45;0.061;-0.9827;-0.0476;-17.4733;-87.8244;-8.8931
2023-11-22 15:41:45;0.2622;-0.8325;-0.2522;-20.6336;-37.8092;-21.6107
2023-11-22 15:41:45;0.0325;-0.9939;-0.3108;-29.6412;-14.2443;-26.0
2023-11-22 15:41:45;0.1902;-0.9922;-0.3911;-22.6412;-3.2137;-37.1527
2023-11-22 15:41:46;0.353;-0.9692;-0.4487;-8.5344;23.8702;-21.771
2023-11-22 15:41:46;0.0376;-1.084;-0.0134;130.7405;-9.9237;45.5115
2023-11-22 15:41:46;0.249;-0.9817;-0.1975;-6.5573;-76.2443;68.8168
2023-11-22 15:41:46;-0.136;-1.0793;0.1121;-21.5114;-57.5725;5.0458
2023-11-22 15:41:47;0.0288;-1.189;-0.1272;-50.458;58.8779;-21.771
2023-11-22 15:41:47;0.0857;-1.1118;-0.2363;-9.8092;23.8931;-26.4886
2023-11-22 15:41:47;0.0171;-1.0359;-0.385;6.0992;73.5802;-10.7099
2023-11-22 15:41:47;0.137;-1.1428;-0.1423;16.9084;15.4351;3.5191
2023-11-22 15:41:49;0.1414;-1.0637;-0.2427;-46.5267;24.4656;-27.084
2023-11-22 15:41:49;0.0811;-1.0505;-0.2114;-25.2595;-4.687;-36.9313
2023-11-22 15:41:49;0.0132;-1.3198;-0.3223;13.3893;61.8168;-3.1832
2023-11-22 15:41:49;0.1206;-1.0498;-0.1248;68.6641;-69.8015;68.9084
2023-11-22 15:41:49;0.2446;-0.8545;-0.05;-1.3664;-41.9542;25.3435
2023-11-22 15:41:49;0.3901;-1.02;-0.3816;-39.4046;-33.7405;-2.7863
2023-11-22 15:41:50;0.0435;-0.8862;-0.3672;-35.1374;-51.7405;-28.6489
2023-11-22 15:41:50;0.113;-1.0264;-0.26;-21.3053;-25.9847;-33.0611
2023-11-22 15:41:50;0.2417;-1.1299;-0.1589;-3.0611;17.6412;-20.6565
2023-11-22 15:41:51;0.2324;-1.2109;-0.2766;17.7786;46.3282;65.2214
2023-11-22 15:41:51;0.2773;-0.8462;-0.1101;-2.8702;-43.8702;38.7099
2023-11-22 15:41:51;0.0327;-0.9211;-0.0652;-15.1908;-59.2137;10.542
2023-11-22 15:41:51;-0.0574;-0.9792;-0.2695;-13.687;-50.2595;-32.1374
2023-11-22 15:41:51;0.1228;-0.9878;-0.293;-23.5496;-36.7481;-39.5573
2023-11-22 15:42:00;0.1555;-1.1204;0.0942;83.855;13.9847;26.4046
2023-11-22 15:42:00;0.2942;-0.6882;-0.5352;41.2137;-117.8779;72.8779
2023-11-22 15:42:00;0.0081;-0.9673;0.0259;-18.0611;-93.0153;30.5038
2023-11-22 15:42:00;-0.5701;-1.7107;0.9592;40.7176;-185.0763;33.4351
2023-11-22 15:42:01;0.2798;-1.0542;-0.2019;-41.2137;-7.9008;-43.5191
2023-11-22 15:42:01;0.3308;-0.9541;-0.3508;-21.5038;-19.0229;-43.229
2023-11-22 15:42:01;0.032;-1.2349;-0.1313;71.3435;13.5038;22.6641
2023-11-22 15:42:01;0.2297;-0.8057;-0.468;41.4198;-103.0992;83.4657
2023-11-22 15:42:02;0.2097;-0.9209;-0.0161;-23.9695;-63.458;6.6947
2023-11-22 15:42:02;0.6917;-0.5693;-0.9446;-7.4504;26.6489;-17.4809
2023-11-22 15:42:02;0.1924;-1.0271;-0.2292;-64.3053;57.2977;-49.5954
2023-11-22 15:42:02;0.231;-1.0237;-0.3445;-25.6031;37.9313;-41.5115
2023-11-22 15:42:03;0.2485;-0.9338;-0.2737;-50.8092;-19.1374;-51.374
2023-11-22 15:42:04;0.3896;-1.0371;-0.2654;-18.1374;4.3282;-37.3664
2023-11-22 15:42:04;0.3137;-1.009;-0.2183;98.0382;13.1527;80.1679
2023-11-22 15:42:04;0.4155;-0.8206;-0.1223;21.5649;-54.6565;60.2519
2023-11-22 15:42:04;-0.1301;-1.1194;0.1626;-31.7786;-19.4122;-16.7557
2023-11-22 15:42:04;0.3647;-1.5813;0.116;-34.8931;12.8168;-25.7176
2023-11-22 15:42:05;-0.0049;-1.033;-0.2993;-58.2061;73.5878;-40.1679
2023-11-22 15:42:05;0.3618;-0.9021;-0.5203;-34.6718;78.5649;-36.0076
2023-11-22 15:42:05;0.3047;-1.0627;-0.2756;71.4657;98.3664;54.1145
2023-11-22 15:42:05;0.3247;-0.7878;-0.1663;36.5496;-35.1069;50.9008
2023-11-22 15:42:06;-0.2019;-1.3069;0.1912;-1.9466;-24.8168;15.3435
2023-11-22 15:42:06;-0.0076;-1.1306;-0.3333;-58.8397;37.2214;-34.4427
2023-11-22 15:42:13;0.1946;-1.0171;-0.2034;-2.2901;2.1145;-2.916
2023-11-22 15:42:23;0.1426;-1.0208;-0.2317;-1.8855;-1.0687;-1.0458
2023-11-22 15:42:23;0.1428;-1.0242;-0.231;-1.7557;-1.0534;-1.1832
2023-11-22 15:42:27;0.145;-1.0244;-0.2263;-2.1908;-1.2901;-1.4198
2023-11-22 15:42:27;0.1353;-1.0298;-0.219;-1.542;-1.6107;-1.5725
2023-11-22 15:42:27;0.1348;-1.02;-0.2275;-1.9237;-0.3588;-1.3282
2023-11-22 15:42:27;0.1472;-1.0288;-0.2241;-2.1985;-0.9084;-1.2595
2023-11-22 15:42:27;0.1338;-1.0313;-0.2163;-1.7863;-0.9389;-1.3206
2023-11-22 15:42:28;0.1321;-1.0232;-0.22;-1.6718;-0.7557;-0.8855
2023-11-22 15:42:30;0.4175;-0.8037;-0.3088;-9.5573;38.6565;-27.084
2023-11-22 15:42:30;0.0786;-0.9712;-0.3291;-34.1985;38.5649;-7.8779
2023-11-22 15:42:30;0.1265;-1.0537;-0.2771;-4.6489;25.0458;6.9389
2023-11-22 15:42:30;0.1089;-1.0186;-0.3176;-8.0763;36.6947;4.1679
2023-11-22 15:42:31;0.04;-1.0159;-0.335;0.2595;30.1756;-1.0763
2023-11-22 15:42:31;0.114;-1.01;-0.2922;13.9618;38.916;7.9237
2023-11-22 15:42:31;0.0962;-1.011;-0.1257;6.6107;85.0;-17.2901
2023-11-22 15:42:31;0.2212;-0.9871;-0.1941;-13.5649;5.2214;-20.0534
2023-11-22 15:42:31;-0.0688;-1.1169;-0.0979;1.6107;15.7557;10.3206
2023-11-22 15:42:33;0.1143;-1.0132;-0.3582;-29.9847;11.6718;1.0534
2023-11-22 15:42:33;0.1113;-0.9958;-0.4187;-21.8702;70.5573;8.2366
2023-11-22 15:42:33;0.2061;-0.9795;-0.5085;-9.8244;101.3817;14.8779
2023-11-22 15:42:34;0.1101;-1.0156;-0.447;-4.9008;79.9924;7.3282
2023-11-22 15:42:34;0.4951;-0.9927;-0.3855;13.6947;126.1679;36.7786
2023-11-22 15:42:34;0.064;-0.8982;-0.2314;-12.7786;80.9618;32.458
2023-11-22 15:42:34;0.0171;-1.8596;0.7039;38.9771;28.8473;-36.2672
2023-11-22 15:42:37;-0.6987;-0.5183;0.2739;-1.9924;-1.7099;1.3435
2023-11-22 15:42:37;-0.7205;-0.5098;0.2585;-0.8092;-1.3282;-1.5878
2023-11-22 15:42:37;-0.7024;-0.5017;0.301;-1.7634;-1.6031;-1.5649
2023-11-22 15:42:38;-0.7085;-0.4946;0.2888;-0.9771;-2.1985;-1.5954
2023-11-22 15:42:38;-0.6985;-0.5037;0.2974;-1.5878;-0.9847;-1.1145
2023-11-22 15:42:38;-0.7024;-0.499;0.2869;-1.5038;-1.1374;-1.5496
2023-11-22 15:42:38;-0.7019;-0.4988;0.2957;-1.7863;-0.6031;-1.5038
2023-11-22 15:42:39;-0.7041;-0.5029;0.3018;-2.0;-1.2519;-1.1908
2023-11-22 15:42:39;-0.7021;-0.4924;0.2922;-2.0534;-1.7023;-1.1069
2023-11-22 15:42:39;-0.7053;-0.4956;0.2966;-1.8092;-0.8931;-1.2366
2023-11-22 15:42:39;-0.7063;-0.4963;0.2849;-2.0153;-1.6565;-1.4733
2023-11-22 15:42:40;-0.7212;-0.4985;0.2795;0.3817;3.7023;-1.9771
2023-11-22 15:42:42;-0.1074;-0.967;-0.0085;4.3664;63.0153;-34.0382
2023-11-22 15:42:44;0.0376;-0.905;0.0837;3.7557;-33.9542;-6.0
2023-11-22 15:42:44;0.1924;-1.1287;-0.2183;-98.1069;51.4962;-15.9542
2023-11-22 15:42:44;0.1533;-1.0469;-0.2686;-29.7176;11.5115;-10.6412
2023-11-22 15:42:44;0.0522;-1.0674;-0.1294;-5.5115;19.7939;-7.9695
2023-11-22 15:42:44;0.1782;-1.0193;-0.323;-0.0916;17.084;-12.458
2023-11-22 15:42:45;0.1838;-1.011;-0.2698;9.3435;6.4962;-15.9924
2023-11-22 15:42:45;0.0417;-1.4167;0.0542;70.1374;42.5267;54.1832
2023-11-22 15:42:45;0.1328;-0.9121;0.1716;27.3817;-94.1603;46.7481
2023-11-22 15:42:46;-0.1646;-0.9839;0.0637;3.5267;-1.6947;2.1374
2023-11-22 15:42:46;-0.1968;-0.9192;0.1357;26.9237;-23.2595;35.8779
2023-11-22 15:42:46;-0.3198;-0.781;0.2053;33.084;13.0992;39.0916
2023-11-22 15:42:46;-0.5654;-0.7397;0.3064;39.6412;17.8779;43.916
2023-11-22 15:42:46;-0.6204;-0.4739;0.4067;26.7786;-23.7099;28.5344
2023-11-22 15:42:47;-0.6597;-0.3555;0.4355;-1.4733;7.7176;7.7176
2023-11-22 15:42:47;-0.6135;-0.4392;0.4741;-4.2366;-4.1679;-1.6107
2023-11-22 15:42:48;-0.6597;-0.4072;0.4341;-1.1298;2.3588;-0.8397
2023-11-22 15:42:48;-0.6562;-0.4067;0.4448;-2.3435;-2.4427;-0.9466
2023-11-22 15:42:48;-0.6594;-0.4136;0.4382;-1.6031;-0.2748;-1.6489
2023-11-22 15:42:48;-0.6467;-0.407;0.4404;-2.3893;-1.2595;-1.1985
2023-11-22 15:42:49;-0.6528;-0.4092;0.4363;-1.6336;-1.8092;-1.4809
2023-11-22 15:42:49;-0.6589;-0.4058;0.4299;-1.7939;0.1908;-1.4885
2023-11-22 15:42:49;-0.6477;-0.4075;0.4463;-2.2366;-1.0534;-1.5573
2023-11-22 15:42:49;-0.6594;-0.4053;0.437;-2.0153;-1.5496;-1.3893
2023-11-22 15:42:50;-0.6602;-0.4148;0.4297;-1.7328;-0.8931;-1.3817
2023-11-22 15:42:50;-0.656;-0.4128;0.4368;-1.9542;-0.9084;-1.458
2023-11-22 15:42:50;-0.6602;-0.4053;0.4333;-2.1145;-1.2901;-1.2748
2023-11-22 15:42:50;-0.6628;-0.4092;0.4307;-1.2672;-1.4351;-1.6947
2023-11-22 15:42:51;-0.6628;-0.4109;0.4399;-1.8855;-1.3511;-1.3206
2023-11-22 15:42:53;-0.6321;-0.4082;0.4312;-2.0763;-5.8092;-1.2672
2023-11-22 15:42:54;-0.6606;-0.405;0.4307;-1.2366;-2.7328;-1.1145
2023-11-22 15:42:56;-0.6575;-0.3926;0.447;-2.0763;-0.9008;-0.916
2023-11-22 15:42:56;-0.667;-0.3938;0.4421;-1.5878;-0.8626;-1.1374
2023-11-22 15:43:08;-0.0374;-1.0137;-0.3318;-48.2061;42.7481;-30.2595
2023-11-22 15:43:09;0.1047;-0.8713;-0.1521;14.2748;-52.2214;35.8702
2023-11-22 15:43:12;-0.1345;-0.8467;-0.5505;49.7099;-72.3282;21.6031
2023-11-22 15:43:12;0.1113;-0.9976;-0.3374;-49.5496;20.5802;-27.5114
2023-11-22 15:43:14;0.0769;-0.9946;-0.3889;-45.5878;26.9847;-24.8855
2023-11-22 15:43:14;-0.0259;-1.0281;-0.3103;-21.145;39.2595;-21.1069
2023-11-22 15:43:15;0.1868;-0.595;-0.9675;-110.084;7.2443;-20.0534
2023-11-22 15:43:15;0.0122;-1.0266;-0.3884;-50.771;35.9695;-19.7481
2023-11-22 15:43:15;0.0159;-0.9775;-0.426;-36.3282;97.2901;-12.4809
2023-11-22 15:43:20;0.0879;-0.9739;-0.4175;-22.8092;59.9542;-13.8626
2023-11-22 15:43:21;0.1057;-0.9985;-0.158;-68.1908;23.4962;-31.5267
2023-11-22 15:43:22;-0.0244;-1.0076;-0.3525;-42.626;-1.0;-34.2901
2023-11-22 15:43:22;0.0994;-1.0054;-0.4233;-15.9237;17.916;-27.8473
2023-11-22 15:43:22;0.01;-1.0112;-0.377;78.1908;-33.2672;51.1679
2023-11-22 15:43:22;0.0627;-0.9553;-0.2051;-3.7405;-88.0229;36.5954
2023-11-22 15:43:26;0.0518;-0.9844;-0.3394;-43.8702;22.1298;-21.5344
2023-11-22 15:43:26;0.0776;-1.0081;-0.3271;-23.6947;44.7176;-21.4962
2023-11-22 15:43:27;0.0007;-1.3169;0.2036;21.2519;7.2672;-7.8168
2023-11-22 15:43:27;0.051;-0.9912;-0.3823;-42.6947;47.771;-20.6641
2023-11-22 15:43:27;-0.0425;-0.9954;-0.4009;-26.9084;51.8092;-19.4733
2023-11-22 15:43:28;-0.0642;-1.2234;-0.1094;70.0916;39.4733;21.7939
2023-11-22 15:43:34;0.0879;-1.0251;-0.3242;-6.3893;4.6794;-2.0458
2023-11-22 15:43:34;0.0376;-1.0259;-0.3157;2.8321;7.9084;1.0076
2023-11-22 15:43:34;0.0474;-1.0254;-0.2651;5.7176;-3.2137;0.626
2023-11-22 15:43:35;0.0542;-1.0259;-0.2249;1.3969;-1.229;-1.3817
2023-11-22 15:43:35;0.0437;-1.0391;-0.2341;-1.2366;0.3053;-2.2824
2023-11-22 15:43:35;0.0344;-1.0271;-0.2356;-3.8779;-5.4733;-5.2061
2023-11-22 15:43:36;0.0403;-1.0371;-0.1797;6.0687;0.9237;2.6641
2023-11-22 15:43:36;0.0044;-1.0247;-0.1453;5.0534;-1.1832;5.4962
2023-11-22 15:43:36;0.0156;-1.0347;-0.1433;1.5649;-1.5344;0.8473
2023-11-22 15:43:36;0.0005;-1.0247;-0.1326;1.3588;-1.8779;1.3435
2023-11-22 15:43:36;-0.0256;-1.03;-0.0979;-0.5878;-5.916;-0.2595
2023-11-22 15:43:37;0.0107;-1.0234;-0.1277;-2.5344;-3.7405;0.2824
2023-11-22 15:43:44;-0.0745;-1.043;-0.3308;43.7939;-111.3817;61.0992
2023-11-22 15:44:13;0.0725;-1.4436;0.0315;20.4198;76.1603;22.626
2023-11-22 15:44:13;0.3291;-0.9177;-0.1843;58.458;-89.7786;91.5496
2023-11-22 15:44:16;0.1558;-1.3745;-0.2107;-12.8015;74.6947;7.687
2023-11-22 15:44:17;0.4973;-0.9189;-0.2383;-31.4275;32.5649;-19.1145
2023-11-22 15:44:17;0.3198;-0.9583;-0.3171;-10.1145;60.1221;0.7023
2023-11-22 15:44:18;0.3279;-0.9836;-0.0901;-8.1603;7.9618;-5.9389
2023-11-22 15:44:18;0.3525;-0.9917;-0.0439;1.6412;7.084;1.7634
2023-11-22 15:44:18;0.3955;-0.9753;-0.0405;-0.4046;7.1603;2.7481
2023-11-22 15:44:19;0.3875;-0.9866;-0.0657;-3.2366;1.771;0.3817
2023-11-22 15:44:20;0.3496;-0.9714;-0.4402;-36.0534;76.9542;10.8321
2023-11-22 15:44:20;0.2004;-1.041;-0.2192;-29.7634;86.5649;9.9695
2023-11-22 15:44:20;0.4885;-1.0986;-0.1462;80.9313;80.4275;48.9847
2023-11-22 15:44:21;0.3079;-0.9761;-0.2612;-44.6183;49.4198;-15.1221
2023-11-22 15:44:32;0.1667;-1.354;-0.1377;0.2137;84.3817;-8.0611
2023-11-22 15:44:32;0.4636;-1.0642;-0.2539;64.5191;-96.2443;80.0611
2023-11-22 15:44:32;0.2534;-0.9565;-0.1245;-21.5802;-46.5649;10.3053
2023-11-22 15:44:33;0.3003;-1.5947;0.4695;-48.8626;-102.5954;-64.0076
2023-11-22 15:44:33;0.447;-0.9285;-0.2778;-57.374;1.8397;-15.2824
2023-11-22 15:44:33;0.3486;-0.9722;-0.3157;-33.1527;14.7252;-19.3588
2023-11-22 15:44:34;0.938;-0.2971;-1.2461;-80.6489;-52.0382;-48.2977
2023-11-22 15:44:34;0.3523;-0.9695;-0.3174;-17.4046;38.4962;-11.1298
2023-11-22 15:44:35;0.3623;-0.9526;-0.0745;4.2977;0.9924;1.9237
2023-11-22 15:44:37;0.3423;-0.9797;-0.0112;-1.4962;-1.3435;-1.3435
2023-11-22 15:44:41;0.0649;-1.0518;0.1653;-7.8397;-19.8779;17.5649
2023-11-22 15:45:09;0.179;-0.8796;-0.1326;-33.4275;8.2824;11.6641
2023-11-22 15:45:11;0.1179;-1.3254;0.417;-18.4733;-94.0382;-28.3511
2023-11-22 15:45:11;0.2939;-0.991;-0.345;-50.2214;15.626;-31.8473
2023-11-22 15:45:11;0.2971;-0.967;-0.2678;-23.229;39.1145;-29.145
2023-11-22 15:45:11;0.0378;-1.3198;-0.0481;0.145;52.5802;21.5114
2023-11-22 15:45:11;0.2842;-0.9912;-0.408;103.855;-75.9008;90.5878
2023-11-22 15:45:11;0.0996;-0.9282;-0.0811;-26.0;-1.458;-16.8855
2023-11-22 15:45:11;0.7207;-0.2742;-1.5024;-123.7786;52.1145;-17.2366
2023-11-22 15:45:11;0.25;-0.9773;-0.356;-90.7557;85.3817;-35.5038
2023-11-22 15:45:11;0.2644;-0.9929;-0.3745;-31.3893;49.0;-23.313
2023-11-22 15:45:11;0.2078;-1.2502;0.1648;85.5954;77.6641;51.8473
2023-11-22 15:45:11;0.4275;-0.8684;-0.2795;50.0611;-86.5038;66.8626
2023-11-22 15:45:11;-0.4431;-1.3389;0.4187;8.5649;-21.8015;-3.8779
2023-11-22 15:45:11;0.1106;-0.8997;-0.3474;-72.771;13.2137;-39.2824
2023-11-22 15:45:12;0.3115;-0.7495;-0.2471;32.4656;-85.542;53.9924
2023-11-22 15:45:13;-0.1191;-1.0874;0.2424;24.0687;-69.1145;0.771
2023-11-22 15:45:13;0.0542;-1.0947;-0.2;-51.145;-32.4962;-37.6336
2023-11-22 15:45:13;0.103;-1.0125;-0.3777;-52.6641;25.5038;-34.9389
2023-11-22 15:45:13;0.394;-0.9814;-0.5071;-23.916;55.4275;-13.8702
2023-11-22 15:45:14;0.2864;-0.958;-0.4856;-34.8855;51.1985;-11.9847
2023-11-22 15:45:15;0.2329;-1.1697;0.4812;66.5115;84.1908;44.4198
2023-11-22 15:45:19;0.3203;-0.9927;-0.2451;-2.7405;-1.7405;0.1298
2023-11-22 15:45:20;0.3186;-1.0012;-0.2488;-1.0382;-1.4962;-1.5878
2023-11-22 15:45:24;0.2297;-0.9768;-0.2036;0.1221;27.4504;9.5802
2023-11-22 15:45:29;0.1287;-1.02;-0.1213;3.3206;-64.1069;-13.687
2023-11-22 15:45:29;0.1628;-1.2104;-0.2656;-3.5573;-44.8168;15.9695
2023-11-22 15:45:30;0.0342;-1.001;-0.2444;6.9313;-29.8321;2.0305
2023-11-22 15:45:30;0.054;-1.001;-0.1782;8.6794;-22.8473;-0.0458
2023-11-22 15:45:32;0.3638;-0.9768;-0.1323;81.4504;-6.8168;6.0687
2023-11-22 15:45:35;0.0947;-1.0212;-0.2271;-23.0611;-20.1603;-3.2137
2023-11-22 15:45:36;0.1819;-1.0171;-0.3042;-2.2137;-1.9618;-0.9313
2023-11-22 15:46:04;0.2119;-1.0012;-0.2405;58.5878;-41.8473;61.458
2023-11-22 15:46:04;0.0144;-0.8765;-0.2322;-25.5267;7.855;17.5802
2023-11-22 15:46:04;0.1333;-1.2947;0.1663;-69.0916;24.3511;-28.2672
2023-11-22 15:46:05;0.3555;-0.8657;-0.4624;-56.229;6.7405;-25.2824
2023-11-22 15:46:06;-0.0603;-1.0437;0.1924;19.7939;-29.0534;0.7481
2023-11-22 15:46:06;0.345;-1.0833;-0.0693;-97.7557;59.0305;-35.2061
2023-11-22 15:46:06;0.1523;-1.051;-0.2161;-31.9237;31.7481;-9.8626
2023-11-22 15:46:06;0.1741;-1.0283;-0.3171;-27.8702;25.1221;-27.1985
2023-11-22 15:46:08;0.1711;-1.0339;-0.3457;-35.542;-3.8015;-35.3664
2023-11-22 15:46:08;0.1282;-1.0635;-0.1934;-18.8321;16.1374;-30.5725
2023-11-22 15:46:08;0.1191;-1.2139;-0.0239;48.9389;38.1298;29.2595
2023-11-22 15:46:08;0.2856;-0.9263;-0.3582;60.2061;-114.7176;69.8015
2023-11-22 15:46:09;-0.1128;-1.1343;0.1797;-10.7176;-31.3435;-9.7481
2023-11-22 15:46:09;0.4465;-1.2786;0.1555;-18.7863;-14.9771;-21.9389
2023-11-22 15:46:09;0.209;-1.0007;-0.3191;-60.1985;27.0229;-36.9466
2023-11-22 15:46:09;0.251;-0.9856;-0.4834;-43.7405;44.0916;-22.6107
2023-11-22 15:46:09;0.3191;-0.9202;-0.0339;100.8321;49.3435;51.7634
2023-11-22 15:46:10;0.2888;-0.8274;-0.2908;25.7557;-86.1298;52.9695
2023-11-22 15:46:10;-0.2319;-1.1143;0.2173;23.3206;-93.1374;3.8779
2023-11-22 15:46:11;0.2356;-1.2849;-0.3047;3.4351;0.855;-21.4504
2023-11-22 15:46:11;0.3823;-1.2681;-0.4739;12.3511;13.3435;69.9542
2023-11-22 15:46:11;0.4241;-0.8293;-0.1785;-11.9313;-25.0153;23.3588
2023-11-22 15:46:11;0.3784;-1.3113;-0.438;-39.145;31.6565;-46.9008
2023-11-22 15:46:12;0.1594;-1.0261;-0.3076;-13.5573;-13.5725;-18.1603
2023-11-22 15:46:12;0.1418;-1.0508;-0.2664;-2.3359;2.5191;-5.2901
2023-11-22 15:46:14;0.2102;-1.0017;-0.3711;-8.5496;11.4427;3.0916
2023-11-22 15:46:15;0.2749;-0.9175;-0.0449;4.4198;-82.7099;25.0382
2023-11-22 15:46:15;0.2358;-1.342;0.3892;-18.8092;-81.458;-42.9084
2023-11-22 15:46:15;0.1482;-1.0688;-0.2476;-52.9084;21.4122;-23.7328
2023-11-22 15:46:16;0.2458;-0.9717;-0.3752;-32.1756;-0.4962;-36.916
2023-11-22 15:46:16;-0.167;-1.4719;0.2961;83.3893;2.542;28.3206
2023-11-22 15:46:16;0.29;-0.8975;-0.5142;78.5802;-157.6107;72.0
2023-11-22 15:46:16;-0.1116;-1.0789;0.2002;-18.8321;-53.8855;3.0458
2023-11-22 15:46:21;0.1689;-0.876;-0.3789;-77.3969;33.916;-28.2214
2023-11-22 15:46:30;0.0837;-1.0388;-0.2869;-9.2443;-27.9389;1.7863
2023-11-22 15:46:30;0.1802;-1.0088;-0.3459;-7.1221;-8.1603;-1.145
2023-11-22 15:46:30;0.1841;-1.0073;-0.3665;-3.3588;-6.1756;0.3206
2023-11-22 15:46:30;0.157;-1.0129;-0.3525;-3.1756;-3.4962;-1.5344
2023-11-22 15:46:31;0.1641;-1.0076;-0.3723;-2.6565;-1.2366;-1.4427
2023-11-22 15:46:32;0.1736;-1.0139;-0.3726;6.2519;-13.687;-4.7481
2023-11-22 15:46:32;0.179;-1.0161;-0.3308;16.0992;-0.8626;-0.1069
2023-11-22 15:46:32;0.1411;-1.0325;-0.1853;30.1527;10.687;10.8931
2023-11-22 15:46:33;0.1426;-0.9851;0.0217;22.9771;5.9695;5.0458
2023-11-22 15:46:33;0.1919;-1.0042;-0.0808;-4.8855;42.3969;-32.1832
2023-11-22 15:46:33;-0.0972;-1.1204;-0.231;-75.7557;67.7328;17.2901
2023-11-22 15:46:33;0.1104;-1.0225;-0.1975;-20.6947;23.4275;4.542
2023-11-22 15:46:33;0.0806;-1.0308;-0.3125;-28.2061;42.5649;1.771
2023-11-22 15:46:34;0.0879;-1.0095;-0.3962;-2.9237;27.855;5.3664
2023-11-22 15:46:35;0.1907;-1.1333;-0.1182;-7.5344;18.6794;7.8702
2023-11-22 15:46:37;0.2544;-1.0024;-0.3037;-2.3053;-0.6489;-1.4427
2023-11-22 15:46:37;0.2988;-0.9976;-0.3037;-2.9847;-8.0458;-4.9618
2023-11-22 15:46:37;0.2817;-1.0022;-0.2996;0.1527;3.4427;1.5267
2023-11-22 15:46:40;0.2603;-1.0044;-0.2903;-1.8397;-1.2214;-1.4122
2023-11-22 15:46:40;0.2566;-1.0054;-0.3042;-2.4046;-1.626;-1.2824
2023-11-22 15:46:40;0.2659;-1.0029;-0.3057;-1.6336;-1.4046;-1.2748
2023-11-22 15:46:41;0.2639;-1.0042;-0.2991;-1.229;-0.9008;-0.7786
2023-11-22 15:46:41;0.2566;-1.0063;-0.2917;-1.0916;-0.1756;-0.8015
2023-11-22 15:46:41;0.2566;-1.0017;-0.3008;-1.3435;-0.2443;-1.1221
2023-11-22 15:46:41;0.2581;-0.9988;-0.3059;-1.9924;-0.3817;-1.3969
2023-11-22 15:46:42;0.2617;-0.9944;-0.3103;-1.2519;-1.2519;-1.2824
2023-11-22 15:46:42;0.2603;-0.9973;-0.2983;-1.4962;-1.9542;-1.084
2023-11-22 15:46:42;0.2551;-1.0139;-0.3015;-1.2519;-1.0229;-1.1374
2023-11-22 15:46:42;0.2581;-1.0037;-0.2957;-1.5954;-1.542;-1.2519
2023-11-22 15:46:43;0.2505;-1.0046;-0.2964;-1.9618;-1.6489;-1.229
2023-11-22 15:47:00;0.3418;-0.7563;-0.4539;-49.855;-11.1756;-23.8321
2023-11-22 15:47:00;0.1526;-1.0327;-0.3982;-43.0382;37.229;-12.2443
2023-11-22 15:47:00;0.1968;-0.97;-0.3894;-23.9313;17.2366;-25.7557
2023-11-22 15:47:01;0.2126;-1.2043;-0.5999;-12.9008;16.3588;-11.2061
2023-11-22 15:47:02;0.0676;-0.9895;-0.3567;-39.4198;40.9008;-8.7099
2023-11-22 15:47:03;-0.1318;-1.0842;-0.0598;-9.3282;-62.542;5.0458
2023-11-22 15:47:05;0.1917;-1.0869;-0.3445;18.5038;8.145;-8.0458
2023-11-22 15:47:06;0.2161;-0.9705;-0.4026;32.5115;-24.9008;22.0611
2023-11-22 15:47:06;0.166;-1.0051;-0.1892;9.9771;-41.8473;26.5114
2023-11-22 15:47:07;0.1328;-0.9922;-0.3833;-9.8931;-29.084;-20.6641
2023-11-22 15:47:07;0.1624;-0.9858;-0.4092;-4.0458;-3.2595;-13.5191
2023-11-22 15:47:07;0.2009;-1.0801;-0.3821;18.5878;4.6489;-10.0687
2023-11-22 15:47:07;0.1941;-0.9888;-0.3562;44.2824;-25.4427;23.2748
2023-11-22 15:47:08;0.2041;-0.9812;-0.209;16.0229;-63.4885;32.5344
2023-11-22 15:47:08;0.0732;-0.998;-0.1145;-1.0458;-63.4885;9.4733
2023-11-22 15:47:08;-0.1201;-1.1157;0.0088;35.0611;-111.2595;13.2672
2023-11-22 15:47:09;0.1208;-0.998;-0.3098;-28.855;-29.0153;-20.8626
2023-11-22 15:47:09;0.0569;-1.0051;-0.3958;-18.9695;-22.1832;-23.5344
2023-11-22 15:47:09;0.1594;-0.9861;-0.4631;-12.9542;13.6107;-20.0763
2023-11-22 15:47:09;0.1885;-1.1641;-0.1309;43.2595;-2.9847;-1.3969
2023-11-22 15:47:09;0.0037;-0.9912;-0.3137;16.145;-50.2595;28.9618
2023-11-22 15:47:09;0.0317;-0.9524;-0.2852;40.8779;-115.1908;51.687
2023-11-22 15:47:10;-0.0159;-1.0615;-0.3467;-29.8473;-11.2443;-15.5115
2023-11-22 15:47:11;0.0955;-0.9927;-0.439;-37.1298;-20.2748;-32.1985
2023-11-22 15:47:11;0.1848;-0.959;-0.5176;-21.1985;38.7557;-9.6107
2023-11-22 15:47:11;0.0266;-1.0066;-0.1343;112.145;-1.4656;57.7252
2023-11-22 15:47:11;0.2412;-0.8777;-0.2073;24.1756;-64.1527;30.5725
2023-11-22 15:47:11;-0.0645;-0.998;0.1333;12.9389;-51.374;-8.916
2023-11-22 15:47:11;0.5225;-0.6331;-0.5254;-80.0763;30.4122;-34.0229
2023-11-22 15:47:12;-0.0178;-1.0547;-0.3215;-33.9466;26.9847;1.3206
2023-11-22 15:47:12;0.2034;-0.9421;-0.4473;-34.2901;28.4656;-23.5038
2023-11-22 15:47:12;0.0034;-1.2942;0.0701;65.7252;2.4275;14.2672
2023-11-22 15:47:12;0.1189;-0.9746;-0.4014;46.542;-66.687;41.1832
2023-11-22 15:47:13;0.0356;-0.9814;-0.1284;14.7939;-39.6412;28.0763
2023-11-22 15:47:13;0.0134;-0.9163;-0.1951;-25.2137;-34.4733;-3.6412
2023-11-22 15:47:13;0.1506;-1.0798;-0.2231;-61.3206;-10.1221;-18.9695
2023-11-22 15:47:16;0.3269;-0.8816;-0.5227;18.0992;60.7786;21.7328
2023-11-22 15:47:16;0.1987;-1.0168;-0.209;7.4656;-9.2901;31.0229
2023-11-22 15:47:16;0.1453;-0.9788;-0.1621;17.1298;-23.3664;18.229
2023-11-22 15:47:17;0.074;-0.989;-0.2009;-14.9466;-14.6183;-6.1527
2023-11-22 15:47:23;0.1531;-1.0193;-0.1953;-1.7557;-0.7099;-1.4427
2023-11-22 15:47:24;0.1714;-1.0305;-0.197;-1.8168;-0.6794;-1.5344
2023-11-22 15:47:24;0.1633;-1.0249;-0.1882;-1.7023;-1.1603;-1.5573
2023-11-22 15:47:24;0.1438;-1.0249;-0.1838;-1.6565;-4.2061;-2.5496
2023-11-22 15:47:25;0.0515;-1.0347;-0.0144;-1.5267;-8.2366;4.0153
2023-11-22 15:47:29;0.1362;-1.0208;-0.0894;-2.1298;29.3282;-4.1603
2023-11-22 15:47:30;0.2756;-0.9512;-0.0278;20.1221;-10.5802;-9.6565
2023-11-22 15:47:30;0.0857;-0.9849;0.043;17.2824;-11.2901;19.9618
2023-11-22 15:47:30;0.0537;-1.0129;0.0552;17.0687;-8.3206;32.6565
2023-11-22 15:47:30;-0.0339;-0.946;0.0139;2.8397;-11.6183;19.5191
2023-11-22 15:47:31;-0.0872;-1.2444;0.6851;-21.1221;-76.1985;3.0763
2023-11-22 15:47:31;0.1177;-1.0193;-0.1831;-50.6947;1.5878;-12.7099
2023-11-22 15:47:32;-0.1433;-1.0996;0.3696;-17.9237;-7.2901;-13.1374
2023-11-22 15:47:32;0.0332;-1.1296;-0.2102;-28.3053;74.6412;-7.458
2023-11-22 15:47:33;0.323;-1.1426;-0.5173;70.6947;6.9008;60.313
2023-11-22 15:47:33;0.0281;-1.0032;0.011;-45.0076;-73.4657;-11.7176
2023-11-22 15:47:34;0.0059;-0.8567;-0.2339;-6.8015;27.3969;8.1069
2023-11-22 15:47:35;-0.104;-1.2571;-0.0562;22.687;36.1603;12.6565
2023-11-22 15:47:36;0.0515;-1.0671;-0.2283;-19.3969;32.7863;-5.5954
2023-11-22 15:47:36;0.1333;-1.0217;-0.2908;9.4198;17.5725;-4.0
2023-11-22 15:47:36;0.1035;-1.0332;-0.1572;-0.0687;23.2595;-4.9542
2023-11-22 15:47:42;0.0776;-1.043;-0.3149;-18.3588;36.3359;6.1145
2023-11-22 15:47:42;0.0793;-0.9976;-0.4055;-12.7863;49.3511;7.8473
2023-11-22 15:47:45;0.0742;-1.0142;-0.356;-13.1985;26.3053;-12.4198
2023-11-22 15:47:45;0.0977;-1.2573;-0.1162;20.3588;25.5038;-0.4198
2023-11-22 15:47:45;0.2568;-1.0537;-0.2859;31.9084;0.6336;24.8855
2023-11-22 15:47:45;0.1431;-0.9709;-0.2078;9.9771;-26.4656;38.3282
2023-11-22 15:47:46;0.0513;-1.0571;-0.0479;2.9542;-39.9542;1.7481
2023-11-22 15:47:47;0.2158;-0.9897;-0.2415;25.2824;0.9542;18.8244
2023-11-22 15:47:47;0.1785;-1.0146;-0.175;15.6489;-8.5344;27.3359
2023-11-22 15:47:54;0.1067;-0.9976;-0.4348;-5.1527;3.4809;-7.6565
2023-11-22 15:47:55;0.4333;-0.8757;-0.0698;-5.0153;-43.4656;-21.6183
2023-11-22 15:47:56;0.0171;-1.0593;-0.229;28.8168;-72.4427;-10.0076
2023-11-22 15:47:57;0.0542;-0.958;-0.3005;-46.6565;29.4198;-16.1221
2023-11-22 15:48:07;0.1321;-1.0388;-0.2878;-9.9924;3.2519;-5.6031
2023-11-22 15:48:07;0.1082;-1.022;-0.2812;-5.0153;-4.2672;-3.7099
2023-11-22 15:48:11;0.2153;-0.9944;-0.4788;-13.6412;71.4504;-1.3588
2023-11-22 15:48:13;0.075;-1.0166;-0.3945;-36.2366;40.8321;-6.8473
2023-11-22 15:48:13;0.1633;-1.0464;-0.3713;49.313;-22.6031;37.9389
2023-11-22 15:48:14;0.0718;-0.9307;-0.2578;6.2061;-13.4809;23.4198
2023-11-22 15:48:15;0.0618;-1.1567;-0.5098;-0.5573;13.2137;3.4809
2023-11-22 15:48:22;0.0115;-0.9922;-0.4546;-40.3511;7.5954;-23.313
2023-11-22 15:48:24;0.0811;-0.9851;-0.4534;1.6565;-5.8015;-6.5802
2023-11-22 15:48:24;0.1411;-0.9692;-0.4749;-5.7634;0.3206;-11.7099
2023-11-22 15:48:29;0.2861;-0.9104;-0.4556;-85.5191;56.5191;-13.1603
2023-11-22 15:48:30;0.2715;-0.9836;-0.0813;-7.9466;56.0305;-27.4198
2023-11-22 15:48:35;0.1467;-0.8933;-0.2986;-60.6718;17.0992;-24.3206
2023-11-22 15:48:35;0.1316;-0.9624;-0.406;-63.0611;41.7786;-34.5496
2023-11-22 15:48:36;0.1226;-1.0139;-0.3552;-68.084;45.3817;-42.6565
2023-11-22 15:48:39;0.1382;-1.0769;-0.073;-79.3053;44.3588;-25.4962
2023-11-22 15:48:42;0.2261;-1.009;-0.301;-3.2214;7.7252;-1.6107
2023-11-22 15:48:50;0.2646;-0.9912;-0.3408;-1.7176;-0.8931;-1.1679
2023-11-22 15:48:51;0.2661;-0.9927;-0.3521;-1.7328;-1.2824;-1.229
2023-11-22 15:48:53;0.2695;-0.9937;-0.3452;-1.9313;-0.3282;-1.1985
2023-11-22 15:48:54;0.2688;-0.9995;-0.3447;-1.9618;-0.6412;-1.0763
2023-11-22 15:48:56;0.2607;-0.9888;-0.3481;-2.1374;-0.9313;-1.5954
2023-11-22 15:48:57;0.2681;-0.9961;-0.345;-1.9237;-0.5725;-1.2901
2023-11-22 15:49:20;-0.6479;-0.3911;0.4683;-2.7939;-1.7405;-2.0305
2023-11-22 15:49:21;-0.6458;-0.405;0.4687;-0.4504;-3.2748;-2.1374
2023-11-22 15:49:22;-0.5613;-0.418;0.5208;1.0534;-2.5802;-5.1374
2023-11-22 15:49:27;-0.5569;-0.3721;0.5159;1.1298;8.3511;-3.7405
2023-11-22 15:49:28;-0.6462;-0.387;0.4741;-5.3511;-5.687;-1.3664
2023-11-22 15:49:28;-0.5977;-0.3975;0.4968;-2.3282;4.0992;-1.1221
2023-11-22 15:49:28;-0.6121;-0.3904;0.4966;-0.6794;-3.8626;-1.2519
2023-11-22 15:49:28;-0.6323;-0.3845;0.4822;-1.1221;-1.855;-0.0458
2023-11-22 15:49:28;-0.6433;-0.364;0.4712;-2.2901;2.5191;-1.3359
2023-11-22 15:49:29;-0.5828;-0.3901;0.509;0.3282;-7.2595;-2.1756
2023-11-22 15:49:29;-0.6445;-0.3867;0.4753;-1.3511;1.5344;-1.1908
2023-11-22 15:49:29;-0.6143;-0.3948;0.4993;-1.5191;-1.7023;-2.7481
2023-11-22 15:49:29;-0.6689;-0.3853;0.4585;-2.5191;1.7405;-1.5573
2023-11-22 15:49:30;-0.6152;-0.3918;0.4783;-2.6412;-2.7252;-1.374
2023-11-22 15:49:35;-0.6057;-0.4307;0.4993;-1.0153;-5.1908;-0.771
2023-11-22 15:49:35;-0.6394;-0.3992;0.4734;-3.7557;0.4962;1.145
2023-11-22 15:49:40;-0.6372;-0.3901;0.4783;-4.7939;5.2595;0.1145
2023-11-22 15:49:40;-0.6135;-0.3589;0.4983;-1.1527;4.542;-0.8702
2023-11-22 15:49:46;-0.625;-0.3696;0.4934;-2.0;-1.0611;-1.3893
2023-11-22 15:49:54;-0.6428;-0.3772;0.4895;-1.3588;0.5344;-1.1221
2023-11-22 15:49:55;-0.6516;-0.3645;0.4807;-1.626;-0.1832;-1.5573
2023-11-22 15:50:03;-0.6521;-0.366;0.4741;-2.1069;-0.8321;-1.3817
2023-11-22 15:50:03;-0.6462;-0.3665;0.4746;-2.0611;-0.7939;-1.4885
