acceleration_x,acceleration_y,acceleration_z,gyroscope_x,gyroscope_y,gyroscope_z,timestamp,label
-3656,653,884,-1304,-706,222,2025-01-30 10:03:32.570264,none
-3589,614,967,-1415,-64,219,2025-01-30 10:03:32.570264,none
-3592,558,924,-1494,515,151,2025-01-30 10:03:32.570264,none
-3660,510,838,-1390,876,52,2025-01-30 10:03:32.570264,none
-3688,544,759,-1179,958,-46,2025-01-30 10:03:32.585870,none
-3719,542,722,-1003,903,-73,2025-01-30 10:03:32.585870,none
-3752,567,721,-908,721,-175,2025-01-30 10:03:32.585870,none
-3707,592,737,-820,525,-290,2025-01-30 10:03:32.585870,none
-3661,587,751,-699,379,-349,2025-01-30 10:03:32.733000,none
-3627,617,914,-458,-165,-22,2025-01-30 10:03:32.733000,none
-3605,627,903,-626,22,-40,2025-01-30 10:03:32.733000,none
-3608,701,861,-787,63,26,2025-01-30 10:03:32.749531,none
-3593,705,881,-858,161,142,2025-01-30 10:03:32.762718,none
-3570,679,870,-870,370,208,2025-01-30 10:03:32.827318,none
-3633,653,834,-896,500,242,2025-01-30 10:03:32.827318,none
-3652,590,827,-949,549,173,2025-01-30 10:03:32.827318,none
-3662,596,842,-1036,675,153,2025-01-30 10:03:32.835789,none
-3640,608,815,-1151,858,218,2025-01-30 10:03:32.848537,none
-3636,665,774,-1164,938,282,2025-01-30 10:03:32.860715,none
-3691,672,765,-1076,805,281,2025-01-30 10:03:32.877298,none
-3713,638,786,-953,636,205,2025-01-30 10:03:32.893188,none
-3714,616,805,-837,425,81,2025-01-30 10:03:32.910899,none
-3708,573,825,-800,363,16,2025-01-30 10:03:33.018569,none
-3743,580,785,-912,243,-33,2025-01-30 10:03:34.618345,none
-3710,562,725,-967,56,-117,2025-01-30 10:03:34.618345,none
-3614,584,693,-756,210,-257,2025-01-30 10:03:34.618345,none
-3519,639,750,-537,587,-118,2025-01-30 10:03:34.618345,none
-3544,688,828,-454,694,145,2025-01-30 10:03:34.618345,none
-3727,671,818,-755,55,387,2025-01-30 10:03:34.633960,none
-3779,599,651,-806,-331,319,2025-01-30 10:03:34.633960,none
-3826,646,744,-607,125,156,2025-01-30 10:03:34.633960,none
-3797,641,845,-618,542,-92,2025-01-30 10:03:34.981189,none
-3694,625,620,-1419,211,230,2025-01-30 10:03:34.981189,none
-3694,612,622,-1255,456,81,2025-01-30 10:03:34.981189,none
-3674,626,663,-1009,705,-75,2025-01-30 10:03:34.981189,none
-3699,654,684,-918,723,-16,2025-01-30 10:03:34.981189,none
-3712,637,736,-1005,557,140,2025-01-30 10:03:34.981189,none
-3890,601,516,-1289,-93,184,2025-01-30 10:03:34.981189,none
-3869,520,330,-963,-544,-7,2025-01-30 10:03:34.981189,none
-3807,496,475,-593,-444,-144,2025-01-30 10:03:35.141664,none
-3843,731,535,-689,202,169,2025-01-30 10:03:35.141664,none
-3837,701,598,-702,-38,107,2025-01-30 10:03:35.141664,none
-3771,701,661,-843,-239,63,2025-01-30 10:03:35.141664,none
-3710,660,664,-987,-313,21,2025-01-30 10:03:35.141664,none
-3681,658,715,-1059,-233,-8,2025-01-30 10:03:35.141664,none
-3662,564,668,-1013,-85,-18,2025-01-30 10:03:35.141664,none
-3609,507,642,-919,31,49,2025-01-30 10:03:35.165936,none
-3644,474,638,-773,112,160,2025-01-30 10:03:35.245446,none
-3703,490,672,-662,92,206,2025-01-30 10:03:35.245446,none
-3759,518,642,-574,105,186,2025-01-30 10:03:35.245446,none
-3781,563,658,-544,162,36,2025-01-30 10:03:35.251484,none
-3750,623,680,-533,193,-2,2025-01-30 10:03:35.251484,none
-3711,686,656,-564,-18,-39,2025-01-30 10:03:35.262534,none
-3733,676,593,-611,-153,-30,2025-01-30 10:03:35.281962,none
-3681,627,597,-585,-147,-29,2025-01-30 10:03:35.297861,none
-3676,627,609,-591,-91,26,2025-01-30 10:03:35.314469,none
-3681,640,613,-579,-9,64,2025-01-30 10:03:35.335809,none
-3707,631,642,-590,-9,84,2025-01-30 10:03:35.354052,none
-3718,653,626,-635,67,6,2025-01-30 10:03:35.369963,none
-3703,651,625,-717,100,-61,2025-01-30 10:03:35.386174,none
-3704,658,554,-751,55,-52,2025-01-30 10:03:35.402293,none
-3669,671,567,-776,-24,20,2025-01-30 10:03:35.412829,none
-3670,675,560,-742,-50,69,2025-01-30 10:03:35.436462,none
-3705,667,637,-731,-170,52,2025-01-30 10:03:35.446166,none
-3711,652,656,-705,-285,22,2025-01-30 10:03:35.465057,none
-3742,629,688,-744,-320,6,2025-01-30 10:03:35.512131,none
-3750,637,650,-756,-331,-50,2025-01-30 10:03:35.512131,none
-3723,642,707,-811,-308,-74,2025-01-30 10:03:35.512131,none
-3655,670,680,-833,-241,-92,2025-01-30 10:03:35.527910,none
-3644,670,648,-798,-133,6,2025-01-30 10:03:35.547790,none
-3664,638,662,-778,-95,73,2025-01-30 10:03:35.564394,none
-3699,646,645,-777,-137,95,2025-01-30 10:03:35.580214,none
-3706,627,649,-772,-166,49,2025-01-30 10:03:35.594634,none
-3719,632,666,-800,-138,-37,2025-01-30 10:03:35.613375,none
-3648,651,642,-806,-127,-57,2025-01-30 10:03:35.630637,none
-3606,655,673,-750,-62,-40,2025-01-30 10:03:35.644507,none
-3606,641,670,-645,12,21,2025-01-30 10:03:35.661450,none
-3639,612,693,-550,80,130,2025-01-30 10:03:35.683187,none
-3699,570,683,-409,255,164,2025-01-30 10:03:35.706139,none
-3807,631,696,-457,351,195,2025-01-30 10:03:35.706139,none
-3857,642,641,-609,83,131,2025-01-30 10:03:35.720968,none
-3705,701,631,-534,-32,-149,2025-01-30 10:03:35.744542,none
-3638,708,649,-403,125,-126,2025-01-30 10:03:35.752401,none
-3586,706,632,-430,134,55,2025-01-30 10:03:35.859531,none
-3614,708,814,-488,363,171,2025-01-30 10:03:35.859531,none
-3725,668,628,-816,113,131,2025-01-30 10:03:35.859531,none
-3760,634,480,-694,-313,47,2025-01-30 10:03:35.859531,none
-3711,701,582,-393,-469,35,2025-01-30 10:03:35.859531,none
-3748,731,714,-236,-302,34,2025-01-30 10:03:35.859531,none
-3732,704,739,-322,-260,-115,2025-01-30 10:03:35.867585,none
-3677,675,700,-572,-477,-180,2025-01-30 10:03:35.885973,none
-3692,650,670,-638,-605,-124,2025-01-30 10:03:35.899969,none
-3649,630,644,-458,-593,-60,2025-01-30 10:03:35.916677,none
-3659,627,679,-330,-412,29,2025-01-30 10:03:35.927428,none
-3670,638,731,-308,-294,24,2025-01-30 10:03:35.944311,none
-3671,676,730,-335,-212,-99,2025-01-30 10:03:35.960679,none
-3697,667,707,-314,-174,-168,2025-01-30 10:03:35.981964,none
-3669,663,683,-274,-209,-129,2025-01-30 10:03:35.997532,none
-3634,656,719,-229,-147,-103,2025-01-30 10:03:36.014437,none
-3671,677,742,-190,73,-119,2025-01-30 10:03:36.031216,
-3676,674,743,-217,220,-99,2025-01-30 10:03:36.046662,none
-3652,706,742,-185,244,-74,2025-01-30 10:03:36.065666,none
-3649,712,786,-181,212,-65,2025-01-30 10:03:36.168604,none
-3674,717,776,-225,242,-47,2025-01-30 10:03:36.168604,none
-3681,675,763,-238,344,-49,2025-01-30 10:03:36.168604,none
-3710,651,739,-248,463,-83,2025-01-30 10:03:36.168604,none
-3719,694,716,-242,461,-140,2025-01-30 10:03:36.168604,none
-3681,728,693,-295,381,-154,2025-01-30 10:03:36.168604,none
-3648,750,719,-288,363,-126,2025-01-30 10:03:36.168604,none
-3640,753,730,-313,271,-54,2025-01-30 10:03:36.187383,none
-3651,720,756,-326,250,-66,2025-01-30 10:03:36.197153,none
-3708,682,725,-350,200,-147,2025-01-30 10:03:36.211904,none
-3674,647,780,-360,101,-190,2025-01-30 10:03:36.228234,none
-3680,656,701,-419,55,-182,2025-01-30 10:03:36.245357,none
-3691,688,732,-478,34,-140,2025-01-30 10:03:36.272298,none
-3672,750,694,-544,-85,-111,2025-01-30 10:03:36.278798,none
-3658,726,766,-592,-136,-94,2025-01-30 10:03:36.298614,none
-3660,711,743,-630,-54,-87,2025-01-30 10:03:36.312366,none
-3689,689,768,-623,40,-55,2025-01-30 10:03:36.337485,none
-3700,688,735,-639,-20,-74,2025-01-30 10:03:36.354498,none
-3685,699,744,-678,-71,-150,2025-01-30 10:03:36.576950,none
-3658,689,710,-692,-18,-215,2025-01-30 10:03:36.576950,none
-3624,696,730,-724,105,-165,2025-01-30 10:03:36.576950,none
-3613,720,699,-741,196,-126,2025-01-30 10:03:36.576950,none
-3644,694,731,-760,309,-131,2025-01-30 10:03:36.576950,none
-3679,707,738,-779,335,-100,2025-01-30 10:03:36.576950,none
-3686,675,676,-798,335,-102,2025-01-30 10:03:36.576950,none
-3734,683,658,-770,171,-123,2025-01-30 10:03:36.576950,none
-3743,683,709,-759,-139,-144,2025-01-30 10:03:36.906379,none
-3541,731,976,-322,892,-402,2025-01-30 10:03:36.906379,none
-3629,740,917,-488,860,-357,2025-01-30 10:03:36.906379,none
-3665,721,843,-636,421,-271,2025-01-30 10:03:36.906379,none
-3676,696,738,-636,93,-234,2025-01-30 10:03:36.906379,none
-3656,720,786,-637,-145,-229,2025-01-30 10:03:36.906379,none
-3662,668,796,-601,-355,-270,2025-01-30 10:03:36.906379,none
-3671,641,787,-557,-589,-309,2025-01-30 10:03:36.906379,none
-3703,660,832,-545,-487,-362,2025-01-30 10:03:36.923320,none
-3672,669,913,-644,-499,-390,2025-01-30 10:03:36.939189,none
-3664,670,927,-733,-528,-337,2025-01-30 10:03:37.010964,none
-3620,686,894,-795,-312,-325,2025-01-30 10:03:37.010964,none
-3600,684,896,-805,320,-403,2025-01-30 10:03:37.018915,none
-3579,650,887,-692,796,-458,2025-01-30 10:03:37.018915,none
-3588,572,871,-543,1101,-436,2025-01-30 10:03:37.018915,none
-3627,598,899,-571,1301,-421,2025-01-30 10:03:37.031204,none
-3695,642,838,-819,1175,-267,2025-01-30 10:03:37.063993,none
-3682,706,766,-985,1124,-118,2025-01-30 10:03:37.075015,none
-3645,711,678,-1094,1279,-138,2025-01-30 10:03:37.079753,none
-3582,661,669,-1085,1153,-205,2025-01-30 10:03:37.098026,none
-3583,541,633,-971,960,-63,2025-01-30 10:03:37.115117,none
-3626,466,597,-826,791,169,2025-01-30 10:03:37.136269,none
-3710,448,538,-826,342,239,2025-01-30 10:03:37.153924,none
-3773,522,567,-770,-198,228,2025-01-30 10:03:37.165526,none
-3713,620,659,-743,-482,185,2025-01-30 10:03:37.189282,none
-3704,677,693,-774,-608,134,2025-01-30 10:03:37.203813,none
-3675,700,783,-861,-886,173,2025-01-30 10:03:37.220189,none
-3692,668,837,-1053,-1229,183,2025-01-30 10:03:37.228389,none
-3708,612,817,-1209,-1185,211,2025-01-30 10:03:37.244806,none
-3727,618,790,-1204,-942,120,2025-01-30 10:03:37.261305,none
-3759,620,848,-1155,-811,-35,2025-01-30 10:03:37.327429,none
-3700,603,810,-1133,-855,-141,2025-01-30 10:03:37.327429,none
-3666,585,841,-1105,-827,-130,2025-01-30 10:03:37.327429,none
-3605,584,861,-1015,-755,-56,2025-01-30 10:03:37.327429,none
-3623,570,844,-915,-598,22,2025-01-30 10:03:37.344530,none
-3659,554,762,-738,-270,14,2025-01-30 10:03:37.360797,standing
-3663,520,771,-528,-40,-97,2025-01-30 10:03:37.377563,standing
-3641,549,763,-372,223,-266,2025-01-30 10:03:37.401186,standing
-3632,608,777,-280,491,-266,2025-01-30 10:03:37.409569,standing
-3597,660,777,-310,561,-155,2025-01-30 10:03:37.434079,standing
-3613,712,815,-415,410,-78,2025-01-30 10:03:37.434079,standing
-3632,660,847,-543,187,1,2025-01-30 10:03:37.460919,standing
-3645,636,836,-588,195,-14,2025-01-30 10:03:37.478165,standing
-3690,603,812,-541,128,-43,2025-01-30 10:03:37.503317,standing
-3683,595,818,-437,-1,-113,2025-01-30 10:03:37.511366,standing
-3691,576,838,-328,-126,-158,2025-01-30 10:03:37.527545,standing
-3678,576,885,-294,-178,-175,2025-01-30 10:03:37.543688,standing
-3715,583,825,-383,-577,-144,2025-01-30 10:03:37.551624,standing
-3709,558,767,-281,-639,-281,2025-01-30 10:03:37.608634,standing
-3611,587,821,-3,-103,-421,2025-01-30 10:03:37.608634,standing
-3632,608,865,107,-150,-288,2025-01-30 10:03:37.611647,standing
-3602,629,829,78,-376,-111,2025-01-30 10:03:37.611647,standing
-3557,711,1059,4,514,-62,2025-01-30 10:03:37.637038,standing
-3725,768,984,-593,384,-137,2025-01-30 10:03:37.654681,standing
-3694,752,669,-662,-682,-252,2025-01-30 10:03:37.667675,standing
-3527,759,795,-261,-257,-120,2025-01-30 10:03:37.683371,standing
-3599,739,896,-158,1,-10,2025-01-30 10:03:37.700417,standing
-3594,630,904,-383,-267,27,2025-01-30 10:03:37.720026,standing
-3563,574,945,-589,-143,23,2025-01-30 10:03:37.731878,standing
-3581,607,883,-652,26,47,2025-01-30 10:03:37.752316,standing
-3597,671,826,-492,123,63,2025-01-30 10:03:37.772105,standing
-3573,732,856,-324,236,109,2025-01-30 10:03:37.785043,standing
-3609,700,937,-333,369,146,2025-01-30 10:03:37.799679,standing
-3700,666,954,-443,392,93,2025-01-30 10:03:37.820173,standing
-3691,649,903,-554,387,-28,2025-01-30 10:03:37.834437,standing
-3641,647,927,-502,512,-152,2025-01-30 10:03:37.851399,standing
-3635,674,912,-501,722,-163,2025-01-30 10:03:37.865494,standing
-3584,667,952,-563,1028,-169,2025-01-30 10:03:37.903648,standing
-3579,705,875,-585,1460,-184,2025-01-30 10:03:37.913702,standing
-3534,689,890,-599,2011,-239,2025-01-30 10:03:37.913702,standing
-3600,705,885,-631,2368,-193,2025-01-30 10:03:37.927561,standing
-3706,706,780,-723,1732,-126,2025-01-30 10:03:37.947790,
-3756,648,707,-785,924,-49,2025-01-30 10:03:37.970345,standing
-3756,597,731,-794,897,-91,2025-01-30 10:03:37.978533,standing
-3703,557,770,-728,899,-102,2025-01-30 10:03:37.995044,standing
-3664,622,815,-752,720,-92,2025-01-30 10:03:38.011483,standing
-3587,654,732,-756,575,3,2025-01-30 10:03:38.027731,standing
-3594,631,702,-676,604,49,2025-01-30 10:03:38.044331,standing
-3633,659,732,-585,530,118,2025-01-30 10:03:38.064635,standing
-3694,626,694,-507,259,244,2025-01-30 10:03:38.080621,standing
-3743,630,755,-445,0,273,2025-01-30 10:03:38.097721,standing
-3755,653,757,-470,-176,237,2025-01-30 10:03:38.115134,standing
-3750,694,773,-652,-225,104,2025-01-30 10:03:38.132128,standing
-3675,764,779,-806,-125,105,2025-01-30 10:03:38.152473,standing
-3678,803,735,-869,-27,142,2025-01-30 10:03:38.164760,standing
-3703,779,712,-867,-21,194,2025-01-30 10:03:38.212327,standing
-3746,737,690,-833,-200,109,2025-01-30 10:03:38.212327,standing
-3743,693,712,-792,-303,-26,2025-01-30 10:03:38.212327,standing
-3743,642,773,-790,-400,-117,2025-01-30 10:03:38.231001,standing
-3706,641,796,-829,-544,-164,2025-01-30 10:03:38.263020,standing
-3679,651,820,-855,-662,-183,2025-01-30 10:03:38.263020,standing
-3631,709,797,-854,-614,-179,2025-01-30 10:03:38.279744,standing
-3594,730,763,-751,-370,-166,2025-01-30 10:03:38.295128,standing
-3644,727,783,-654,-65,-201,2025-01-30 10:03:38.303248,standing
-3681,676,780,-633,-9,-158,2025-01-30 10:03:38.332028,standing
-3639,690,832,-623,-83,-170,2025-01-30 10:03:38.347486,standing
-3654,690,885,-659,-34,-154,2025-01-30 10:03:38.361925,standing
-3700,705,880,-763,-112,-183,2025-01-30 10:03:38.370118,standing
-3632,681,843,-862,-20,-357,2025-01-30 10:03:38.386532,standing
-3581,636,788,-777,524,-448,2025-01-30 10:03:38.402755,standing
-3540,625,743,-626,963,-274,2025-01-30 10:03:38.419692,standing
-3568,601,783,-553,881,-82,2025-01-30 10:03:38.438380,standing
-3660,633,867,-571,640,57,2025-01-30 10:03:38.462932,standing
-3771,661,743,-815,166,19,2025-01-30 10:03:38.511793,standing
-3813,701,625,-506,-257,-171,2025-01-30 10:03:38.514747,standing
-3713,735,812,-186,-40,-351,2025-01-30 10:03:38.527274,standing
-3684,717,903,-248,87,-461,2025-01-30 10:03:38.528833,standing
-3579,698,867,-522,-80,-376,2025-01-30 10:03:38.535749,standing
-3563,694,821,-686,-144,-209,2025-01-30 10:03:38.556782,standing
-3592,651,752,-641,-158,-92,2025-01-30 10:03:38.571090,standing
-3642,624,778,-594,-192,-59,2025-01-30 10:03:38.586098,standing
-3699,650,787,-571,-101,-68,2025-01-30 10:03:38.603856,standing
-3706,675,830,-624,-98,-126,2025-01-30 10:03:38.620097,standing
-3727,700,817,-700,-104,-220,2025-01-30 10:03:38.630222,standing
-3669,708,804,-745,-141,-326,2025-01-30 10:03:38.655220,standing
-3643,679,762,-647,-122,-343,2025-01-30 10:03:38.664944,standing
-3643,618,823,-422,-108,-313,2025-01-30 10:03:38.681319,standing
-3708,522,888,-237,-312,-247,2025-01-30 10:03:38.696913,standing
-3734,526,936,-170,-497,-351,2025-01-30 10:03:38.715346,standing
-3689,556,922,-205,-439,-583,2025-01-30 10:03:38.736623,standing
-3639,595,893,-215,-131,-752,2025-01-30 10:03:38.748497,standing
-3551,665,853,-240,190,-718,2025-01-30 10:03:38.764638,standing
-3483,675,812,-274,430,-501,2025-01-30 10:03:38.812105,standing
-3508,633,821,-250,697,-299,2025-01-30 10:03:38.812594,standing
-3570,611,818,-234,803,-125,2025-01-30 10:03:38.812594,standing
-3619,615,847,-286,879,-41,2025-01-30 10:03:38.831946,standing
-3658,649,824,-384,921,-54,2025-01-30 10:03:38.846912,standing
-3693,667,785,-429,820,-88,2025-01-30 10:03:38.864021,standing
-3673,699,803,-493,799,-70,2025-01-30 10:03:38.880411,standing
-3674,669,751,-509,939,-113,2025-01-30 10:03:38.902635,standing
-3669,665,734,-501,1072,-120,2025-01-30 10:03:38.914510,standing
-3675,645,703,-493,1175,-99,2025-01-30 10:03:38.936662,standing
-3662,653,718,-501,1169,-89,2025-01-30 10:03:38.945904,standing
-3660,611,716,-554,1057,-86,2025-01-30 10:03:38.952093,standing
-3672,646,725,-541,848,-55,2025-01-30 10:03:38.980680,standing
-3684,602,727,-508,771,-76,2025-01-30 10:03:38.997148,standing
-3714,609,762,-514,583,-92,2025-01-30 10:03:39.010421,standing
-3721,610,756,-628,216,-142,2025-01-30 10:03:39.019389,standing
-3672,591,690,-632,266,-160,2025-01-30 10:03:39.045209,standing
-3616,617,680,-565,566,-100,2025-01-30 10:03:39.061173,standing
-3615,660,674,-538,773,-18,2025-01-30 10:03:39.111620,standing
-3614,677,706,-549,841,89,2025-01-30 10:03:39.126388,standing
-3671,700,686,-583,905,163,2025-01-30 10:03:39.128819,standing
-3694,693,669,-692,998,199,2025-01-30 10:03:39.128819,standing
-3774,735,692,-935,854,204,2025-01-30 10:03:39.142886,standing
-3768,672,649,-1043,584,44,2025-01-30 10:03:39.151298,standing
-3731,648,641,-887,723,-122,2025-01-30 10:03:39.175244,standing
-3660,641,648,-837,723,-29,2025-01-30 10:03:39.186957,standing
-3621,653,696,-949,581,98,2025-01-30 10:03:39.197286,standing
-3644,639,809,-1120,765,263,2025-01-30 10:03:39.220793,standing
-3712,628,577,-1457,651,286,2025-01-30 10:03:39.241262,standing
-3721,650,474,-1017,296,203,2025-01-30 10:03:39.258316,standing
-3726,671,578,-571,350,89,2025-01-30 10:03:39.274163,standing
-3682,694,689,-459,320,77,2025-01-30 10:03:39.290048,standing
-3662,682,716,-777,88,202,2025-01-30 10:03:39.305346,standing
-3668,685,720,-1044,2,247,2025-01-30 10:03:39.321924,standing
-3695,694,613,-1076,71,233,2025-01-30 10:03:39.338534,standing
-3716,659,550,-920,40,219,2025-01-30 10:03:39.357425,standing
-3760,687,622,-768,-43,212,2025-01-30 10:03:39.413849,standing
-3744,695,672,-755,-83,137,2025-01-30 10:03:39.415375,standing
-3746,697,672,-784,-48,11,2025-01-30 10:03:39.419634,standing
-3726,710,654,-848,6,-11,2025-01-30 10:03:39.422975,standing
-3717,677,622,-790,81,0,2025-01-30 10:03:39.439045,standing
-3711,662,614,-624,141,60,2025-01-30 10:03:39.454779,standing
-3736,638,650,-535,186,24,2025-01-30 10:03:39.471515,standing
-3756,688,651,-575,175,-52,2025-01-30 10:03:39.488733,standing
-3749,649,683,-591,95,-153,2025-01-30 10:03:39.505216,standing
-3710,674,632,-569,43,-173,2025-01-30 10:03:39.536194,standing
-3668,641,608,-506,-18,-202,2025-01-30 10:03:39.536194,standing
-3626,621,617,-354,18,-206,2025-01-30 10:03:39.561263,standing
-3643,632,620,-215,113,-150,2025-01-30 10:03:39.565165,standing
-3690,637,647,-176,233,-113,2025-01-30 10:03:39.585592,
-3729,636,689,-190,346,-126,2025-01-30 10:03:39.599521,standing
-3765,665,624,-239,344,-178,2025-01-30 10:03:39.611708,standing
-3784,708,651,-120,218,-310,2025-01-30 10:03:39.628596,standing
-3752,711,675,3,-93,-384,2025-01-30 10:03:39.645238,standing
-3678,671,687,46,-251,-413,2025-01-30 10:03:39.704419,standing
-3608,691,706,89,-107,-384,2025-01-30 10:03:39.712126,standing
-3641,643,675,109,181,-335,2025-01-30 10:03:39.712126,standing
-3665,612,648,154,287,-301,2025-01-30 10:03:39.712126,standing
-3693,615,656,168,210,-295,2025-01-30 10:03:39.728234,standing
-3686,623,627,155,104,-326,2025-01-30 10:03:39.753900,standing
-3647,651,674,141,1,-335,2025-01-30 10:03:39.769072,standing
-3619,716,645,89,48,-272,2025-01-30 10:03:39.785914,standing
-3620,727,653,77,256,-212,2025-01-30 10:03:39.794237,standing
-3593,760,657,7,612,-112,2025-01-30 10:03:39.818629,standing
-3711,734,631,-131,564,69,2025-01-30 10:03:39.836813,standing
-3759,704,600,-227,216,79,2025-01-30 10:03:39.861255,standing
-3767,670,605,-76,270,-85,2025-01-30 10:03:39.862929,standing
-3778,681,643,-12,426,-199,2025-01-30 10:03:39.878030,standing
-3754,730,678,-226,-31,-131,2025-01-30 10:03:39.897041,standing
-3719,704,716,-378,-159,-53,2025-01-30 10:03:39.914104,standing
-3714,674,665,-616,-93,-68,2025-01-30 10:03:39.930852,standing
-3680,706,534,-394,-68,-200,2025-01-30 10:03:39.938802,standing
-3642,747,580,-95,230,-249,2025-01-30 10:03:39.963101,standing
-3615,782,603,-39,354,-232,2025-01-30 10:03:40.011092,standing
-3661,743,608,-254,177,-103,2025-01-30 10:03:40.014379,standing
-3677,682,625,-473,-14,-5,2025-01-30 10:03:40.014379,standing
-3767,674,617,-524,-100,20,2025-01-30 10:03:40.014379,standing
-3773,649,618,-449,-149,-86,2025-01-30 10:03:40.044335,standing
-3741,676,687,-405,-153,-195,2025-01-30 10:03:40.064116,standing
-3726,701,637,-363,-112,-290,2025-01-30 10:03:40.071016,standing
-3687,715,624,-273,-63,-407,2025-01-30 10:03:40.090295,standing
-3669,662,632,-177,-15,-415,2025-01-30 10:03:40.104758,standing
-3646,644,718,-148,-19,-356,2025-01-30 10:03:40.121508,standing
-3641,598,697,-190,4,-273,2025-01-30 10:03:40.138016,standing
-3692,544,702,-237,158,-245,2025-01-30 10:03:40.155776,standing
-3715,685,721,-349,321,-299,2025-01-30 10:03:40.170696,standing
-3743,692,614,-277,460,-376,2025-01-30 10:03:40.180543,standing
-3708,656,602,-50,561,-436,2025-01-30 10:03:40.204626,standing
-3715,629,642,55,565,-447,2025-01-30 10:03:40.221347,standing
-3674,571,695,-9,571,-454,2025-01-30 10:03:40.237086,standing
-3684,600,674,-151,611,-440,2025-01-30 10:03:40.254670,standing
-3701,612,611,-321,640,-363,2025-01-30 10:03:40.263426,standing
-3723,677,600,-318,696,-337,2025-01-30 10:03:40.311015,standing
-3706,736,623,-307,739,-326,2025-01-30 10:03:40.313367,standing
-3725,717,597,-286,690,-331,2025-01-30 10:03:40.324879,standing
-3755,693,592,-249,467,-391,2025-01-30 10:03:40.332929,standing
-3768,652,626,-206,251,-443,2025-01-30 10:03:40.349869,standing
-3758,629,623,-127,110,-554,2025-01-30 10:03:40.371307,standing
-3735,654,646,-56,-29,-662,2025-01-30 10:03:40.386421,standing
-3698,662,636,-10,-114,-707,2025-01-30 10:03:40.397187,standing
-3659,664,648,46,-126,-631,2025-01-30 10:03:40.414164,standing
-3637,692,654,-24,-199,-466,2025-01-30 10:03:40.430816,standing
-3599,667,625,-75,-133,-383,2025-01-30 10:03:40.451280,standing
-3609,687,651,-148,123,-265,2025-01-30 10:03:40.476183,standing
-3607,711,648,-362,245,-151,2025-01-30 10:03:40.481189,standing
-3635,702,624,-382,315,-196,2025-01-30 10:03:40.508664,standing
-3626,715,551,-171,488,-146,2025-01-30 10:03:40.514272,standing
-3708,712,634,-295,477,65,2025-01-30 10:03:40.531007,standing
-3813,695,660,-610,439,109,2025-01-30 10:03:40.548756,standing
-3840,740,509,-1041,114,44,2025-01-30 10:03:40.572840,standing
-3840,737,333,-774,-372,-89,2025-01-30 10:03:40.611276,standing
-3719,757,488,-352,-507,-74,2025-01-30 10:03:40.613815,standing
-3659,715,624,-222,-383,-19,2025-01-30 10:03:40.613815,standing
-3622,659,574,-208,-306,37,2025-01-30 10:03:40.632394,standing
-3638,597,634,-272,-208,40,2025-01-30 10:03:40.649118,standing
-3652,612,581,-338,-176,43,2025-01-30 10:03:40.665861,standing
-3698,608,584,-246,-243,125,2025-01-30 10:03:40.682240,standing
-3702,643,577,-88,-440,222,2025-01-30 10:03:40.698183,standing
-3689,671,692,-84,-446,239,2025-01-30 10:03:40.711268,standing
-3667,716,769,-334,-189,204,2025-01-30 10:03:40.727980,standing
-3671,748,733,-596,109,197,2025-01-30 10:03:40.744726,standing
-3668,704,675,-634,204,140,2025-01-30 10:03:40.761078,standing
-3698,686,632,-479,22,178,2025-01-30 10:03:40.777644,standing
-3729,623,666,-350,-242,231,2025-01-30 10:03:40.813911,standing
-3763,629,658,-309,-170,203,2025-01-30 10:03:40.813911,standing
-3822,621,691,-345,8,57,2025-01-30 10:03:40.844483,standing
-3825,674,639,-363,-15,-155,2025-01-30 10:03:40.848439,standing
-3726,701,625,-341,-273,-183,2025-01-30 10:03:40.861210,standing
-3681,749,677,-342,-672,-131,2025-01-30 10:03:40.911666,standing
-3651,727,658,-357,-796,-87,2025-01-30 10:03:40.911666,standing
-3624,631,681,-345,-417,-213,2025-01-30 10:03:40.911666,standing
-3640,569,654,-242,46,-317,2025-01-30 10:03:40.916093,standing
-3661,543,620,11,350,-299,2025-01-30 10:03:40.938047,standing
-3659,579,670,178,409,-231,2025-01-30 10:03:40.966077,standing
-3703,605,727,188,453,-127,2025-01-30 10:03:40.975636,standing
-3742,675,715,68,455,-208,2025-01-30 10:03:40.990126,standing
-3766,705,746,-124,405,-459,2025-01-30 10:03:41.007294,standing
-3674,704,610,-270,346,-590,2025-01-30 10:03:41.022765,standing
-3615,716,558,-227,432,-523,2025-01-30 10:03:41.039581,standing
-3665,641,560,-14,413,-352,2025-01-30 10:03:41.055308,standing
-3755,601,634,187,255,-251,2025-01-30 10:03:41.072123,standing
-3881,606,715,224,153,-346,2025-01-30 10:03:41.081248,standing
-3926,648,737,53,182,-604,2025-01-30 10:03:41.105131,standing
-3864,721,652,-244,377,-978,2025-01-30 10:03:41.121543,standing
-3647,776,596,-261,752,-1236,2025-01-30 10:03:41.137921,standing
-3509,823,584,-261,1025,-1002,2025-01-30 10:03:41.154135,standing
-3556,822,559,-363,543,-557,2025-01-30 10:03:41.211794,standing
-3638,746,662,-585,-99,-234,2025-01-30 10:03:41.211794,standing
-3748,703,576,-987,-622,-139,2025-01-30 10:03:41.215135,standing
-3840,626,554,-780,-765,-329,2025-01-30 10:03:41.215135,
-3857,592,600,-346,-368,-620,2025-01-30 10:03:41.229251,standing
-3803,603,638,-83,-233,-902,2025-01-30 10:03:41.249487,standing
-3652,595,642,-198,-254,-924,2025-01-30 10:03:41.271796,standing
-3499,650,660,-485,-162,-713,2025-01-30 10:03:41.280579,standing
-3469,687,664,-687,-126,-496,2025-01-30 10:03:41.296262,standing
-3478,720,599,-618,-45,-354,2025-01-30 10:03:41.332152,standing
-3575,687,642,-491,229,-265,2025-01-30 10:03:41.332152,standing
-3705,692,718,-531,348,-196,2025-01-30 10:03:41.348612,standing
-3827,675,716,-682,375,-265,2025-01-30 10:03:41.365122,standing
-3905,614,633,-631,221,-579,2025-01-30 10:03:41.380324,standing
-3822,586,618,-478,-33,-851,2025-01-30 10:03:41.405276,standing
-3744,590,651,-444,-128,-872,2025-01-30 10:03:41.410885,standing
-3682,627,675,-538,-44,-776,2025-01-30 10:03:41.427927,standing
-3652,626,686,-617,5,-699,2025-01-30 10:03:41.444492,standing
-3694,588,670,-502,53,-724,2025-01-30 10:03:41.453999,standing
-3739,585,650,-299,94,-854,2025-01-30 10:03:41.510902,standing
-3741,562,703,-146,181,-971,2025-01-30 10:03:41.513208,standing
-3651,535,771,-61,354,-1095,2025-01-30 10:03:41.526251,standing
-3617,520,737,-95,630,-1177,2025-01-30 10:03:41.527690,standing
-3528,519,548,-118,1014,-1091,2025-01-30 10:03:41.534540,standing
-3566,528,527,-255,1272,-730,2025-01-30 10:03:41.554169,standing
-3672,581,609,-422,935,-380,2025-01-30 10:03:41.563939,standing
-3846,633,636,-449,241,-338,2025-01-30 10:03:41.594375,standing
-3960,606,651,-279,-393,-595,2025-01-30 10:03:41.602776,standing
-3967,527,677,50,-745,-947,2025-01-30 10:03:41.619298,standing
-3944,363,657,272,-805,-1199,2025-01-30 10:03:41.638560,standing
-3820,261,695,218,-687,-1436,2025-01-30 10:03:41.654306,standing
-3652,316,674,46,-441,-1447,2025-01-30 10:03:41.668462,standing
-3549,473,662,16,-427,-1246,2025-01-30 10:03:41.688813,standing
-3518,542,636,114,-317,-1128,2025-01-30 10:03:41.701306,standing
-3593,534,597,230,-277,-1096,2025-01-30 10:03:41.716784,standing
-3710,415,562,472,-690,-1124,2025-01-30 10:03:41.733147,standing
-3805,297,643,920,-922,-1195,2025-01-30 10:03:41.749130,standing
-3814,221,879,1141,-415,-1303,2025-01-30 10:03:41.763917,standing
-3906,280,852,1051,-485,-1537,2025-01-30 10:03:41.814192,standing
-3804,292,760,1086,-1076,-1799,2025-01-30 10:03:41.814192,standing
-3713,340,788,1142,-1122,-1808,2025-01-30 10:03:41.814192,standing
-3606,420,683,1013,-1125,-1646,2025-01-30 10:03:41.835694,standing
-3496,491,651,1323,-875,-1512,2025-01-30 10:03:41.849374,standing
-3393,430,776,1850,-228,-1443,2025-01-30 10:03:41.871041,standing
-3404,299,820,2115,302,-1303,2025-01-30 10:03:41.877729,standing
-3414,286,862,1998,844,-1164,2025-01-30 10:03:41.897465,standing
-3487,358,813,1714,1491,-947,2025-01-30 10:03:41.911041,standing
-3619,540,854,1570,1750,-656,2025-01-30 10:03:41.932057,standing
-3810,646,859,1533,1474,-445,2025-01-30 10:03:41.943922,standing
-3927,613,865,1278,1285,-465,2025-01-30 10:03:41.963516,standing
-4030,575,758,761,1159,-632,2025-01-30 10:03:41.977946,standing
-3960,540,674,274,474,-929,2025-01-30 10:03:41.998864,standing
-3759,478,623,67,370,-1247,2025-01-30 10:03:42.015455,standing
-3516,452,723,53,597,-1391,2025-01-30 10:03:42.032124,standing
-3408,414,792,-70,497,-985,2025-01-30 10:03:42.052561,standing
-3412,442,820,-216,611,-459,2025-01-30 10:03:42.061214,standing
-3509,449,792,-363,795,-93,2025-01-30 10:03:42.134087,standing
-3655,410,852,-520,722,70,2025-01-30 10:03:42.152046,standing
-3796,326,919,-604,341,89,2025-01-30 10:03:42.152046,standing
-3813,292,912,-584,209,-6,2025-01-30 10:03:42.152046,standing
-3735,326,917,-742,492,-319,2025-01-30 10:03:42.158073,standing
-3587,344,849,-922,702,-684,2025-01-30 10:03:42.158073,standing
-3392,391,813,-938,656,-588,2025-01-30 10:03:42.175198,standing
-3303,399,900,-696,648,-34,2025-01-30 10:03:42.189787,standing
-3395,375,984,-410,461,562,2025-01-30 10:03:42.207142,standing
-3567,283,1068,-365,262,732,2025-01-30 10:03:42.224033,standing
-3601,105,1077,-574,736,462,2025-01-30 10:03:42.237477,standing
-3613,75,997,-799,1523,126,2025-01-30 10:03:42.260948,standing
-3502,151,969,-844,1874,77,2025-01-30 10:03:42.270019,standing
-3441,222,954,-599,1901,397,2025-01-30 10:03:42.278508,standing
-3497,375,925,-243,1815,907,2025-01-30 10:03:42.303616,standing
-3610,424,935,-43,2131,1211,2025-01-30 10:03:42.321021,standing
-3740,370,867,-186,2489,917,2025-01-30 10:03:42.338739,standing
-3801,255,707,-382,2573,327,2025-01-30 10:03:42.353281,standing
-3567,135,697,33,3538,-74,2025-01-30 10:03:42.365652,standing
-3575,148,1080,227,3872,348,2025-01-30 10:03:42.410933,standing
-3759,185,1149,-246,2314,1093,2025-01-30 10:03:42.414262,standing
-3850,217,854,-287,1777,1487,2025-01-30 10:03:42.419275,standing
-3951,305,980,55,3440,1396,2025-01-30 10:03:42.427592,standing
-4279,391,1056,-620,2998,966,2025-01-30 10:03:42.447975,standing
-4160,413,755,-831,3089,340,2025-01-30 10:03:42.463971,walking
-4031,514,753,-498,3764,-33,2025-01-30 10:03:42.481174,walking
-3850,498,901,-257,3826,46,2025-01-30 10:03:42.501015,walking
-3748,329,974,-154,4051,275,2025-01-30 10:03:42.510895,walking
-3959,110,838,-104,3796,263,2025-01-30 10:03:42.527674,walking
-4230,-48,630,104,3523,-32,2025-01-30 10:03:42.543403,walking
-4462,-102,423,-32,3517,-543,2025-01-30 10:03:42.561012,walking
-4586,65,301,-73,2818,-1077,2025-01-30 10:03:42.577906,walking
-4433,399,561,-304,2336,-1339,2025-01-30 10:03:42.594625,walking
-4261,676,857,-863,1720,-1423,2025-01-30 10:03:42.611050,walking
-4164,833,956,-1355,734,-1696,2025-01-30 10:03:42.627719,walking
-3985,863,893,-1880,18,-2153,2025-01-30 10:03:42.643812,walking
-3912,745,587,-1906,441,-2632,2025-01-30 10:03:42.651881,walking
-3887,302,22,-1079,739,-2929,2025-01-30 10:03:42.697084,walking
-3989,-118,-441,421,712,-3039,2025-01-30 10:03:42.710623,walking
-4009,-532,-565,1664,356,-2803,2025-01-30 10:03:42.711287,walking
-3953,-744,-534,2573,21,-2300,2025-01-30 10:03:42.718873,walking
-3930,-488,-334,2881,-411,-1855,2025-01-30 10:03:42.744898,walking
-3798,30,-146,2160,-25,-1831,2025-01-30 10:03:42.744898,walking
-3510,623,-319,891,1447,-1810,2025-01-30 10:03:42.767199,walking
-3311,1154,-605,-6,2547,-1515,2025-01-30 10:03:42.779147,walking
-3397,1349,-761,-537,2196,-713,2025-01-30 10:03:42.803929,walking
-3243,1655,-749,-356,549,-404,2025-01-30 10:03:42.812229,walking
-3611,1207,-500,279,602,-407,2025-01-30 10:03:42.828975,
-4110,565,-217,558,596,-597,2025-01-30 10:03:42.845209,walking
-4553,-186,-94,50,405,-615,2025-01-30 10:03:42.865839,walking
-4742,-570,-173,-662,247,-345,2025-01-30 10:03:42.885606,walking
-4644,-656,-411,-843,-352,99,2025-01-30 10:03:42.895103,walking
-4247,-313,-470,-742,-1353,908,2025-01-30 10:03:42.914632,walking
-3677,120,-532,-712,-2127,1771,2025-01-30 10:03:42.929146,walking
-3141,570,-232,-811,-1501,2310,2025-01-30 10:03:42.945842,walking
-2685,1034,66,-1499,-84,2534,2025-01-30 10:03:42.962585,walking
-2515,1214,112,-2359,1884,2610,2025-01-30 10:03:43.001942,walking
-2604,1088,-124,-2480,3842,2643,2025-01-30 10:03:43.012100,walking
-2973,815,-284,-2083,4888,2604,2025-01-30 10:03:43.020302,walking
-3535,431,-436,-1768,3770,2261,2025-01-30 10:03:43.036930,walking
-3765,140,-320,-1782,2663,2005,2025-01-30 10:03:43.047661,walking
-3953,6,-72,-2339,1905,1942,2025-01-30 10:03:43.062416,walking
-3931,8,-64,-3102,401,1772,2025-01-30 10:03:43.079444,walking
-3731,261,-35,-3124,-465,1508,2025-01-30 10:03:43.096040,walking
-3618,617,87,-2904,-331,1364,2025-01-30 10:03:43.105521,walking
-3642,982,142,-2836,6,1006,2025-01-30 10:03:43.129611,walking
-3741,1159,178,-2962,398,509,2025-01-30 10:03:43.145403,walking
-3770,1179,88,-3822,838,-72,2025-01-30 10:03:43.161726,walking
-3770,980,-82,-4417,797,-282,2025-01-30 10:03:43.180553,walking
-3855,795,-61,-4281,-168,81,2025-01-30 10:03:43.197369,walking
-4007,540,108,-3253,-1613,229,2025-01-30 10:03:43.203019,walking
-4138,139,345,-1474,-2403,-822,2025-01-30 10:03:43.228849,walking
-4002,-39,628,-1073,-1563,-2240,2025-01-30 10:03:43.246367,walking
-3845,53,545,-1894,-644,-2755,2025-01-30 10:03:43.261442,walking
-3847,318,151,-2171,-523,-1622,2025-01-30 10:03:43.311230,walking
-4059,566,-17,-1527,-1053,-90,2025-01-30 10:03:43.312519,walking
-4299,750,113,-597,-1828,616,2025-01-30 10:03:43.312519,walking
-4486,632,529,367,-2313,125,2025-01-30 10:03:43.312519,walking
-4396,255,1101,1217,-2308,-1290,2025-01-30 10:03:43.340603,walking
-4074,-81,1419,1332,-1394,-2333,2025-01-30 10:03:43.379932,walking
-3782,-292,1332,1256,-943,-2582,2025-01-30 10:03:43.381038,walking
-3491,-240,1214,1541,-1221,-2060,2025-01-30 10:03:43.392061,walking
-3369,23,1147,1505,-1962,-409,2025-01-30 10:03:43.409427,walking
-3516,379,948,656,-2031,1506,2025-01-30 10:03:43.421897,walking
-3882,794,425,-480,-490,2671,2025-01-30 10:03:43.440300,walking
-4359,1158,-355,-1317,1553,2959,2025-01-30 10:03:43.462348,walking
-4596,1356,-828,-2015,2833,3014,2025-01-30 10:03:43.462886,walking
-4747,1248,-1183,-2980,2629,3135,2025-01-30 10:03:43.486252,walking
-4851,657,-1773,-2400,719,2535,2025-01-30 10:03:43.495032,walking
-4660,-189,-1903,334,-1837,820,2025-01-30 10:03:43.525042,walking
-4137,-628,-1429,2823,-3014,-707,2025-01-30 10:03:43.544311,walking
-3300,-411,-796,4109,-1751,-1706,2025-01-30 10:03:43.545275,walking
-2928,262,-276,4106,257,-2090,2025-01-30 10:03:43.562004,walking
-2911,970,223,3306,-646,-1397,2025-01-30 10:03:43.651721,walking
-3065,1310,61,1988,-1837,91,2025-01-30 10:03:43.662267,walking
-3672,1318,-85,965,-1876,1149,2025-01-30 10:03:43.662267,walking
-4395,968,-505,423,-1718,1025,2025-01-30 10:03:43.664963,walking
-4885,464,-758,500,-2009,-220,2025-01-30 10:03:43.668013,walking
-4914,55,-620,952,-2316,-1940,2025-01-30 10:03:43.680453,walking
-4629,-98,-268,1052,-3405,-3203,2025-01-30 10:03:43.683184,walking
-3975,-185,-284,1192,-4871,-3576,2025-01-30 10:03:43.702768,walking
-3230,-129,-286,2393,-4502,-3221,2025-01-30 10:03:43.711080,walking
-2808,-18,-141,3287,-3164,-2390,2025-01-30 10:03:43.731353,walking
-2698,32,-8,3581,-2739,-1175,2025-01-30 10:03:43.744415,walking
-2758,12,135,3516,-2161,-46,2025-01-30 10:03:43.761063,walking
-2958,143,112,2998,-221,673,2025-01-30 10:03:43.769386,walking
-3396,269,98,2550,676,1011,2025-01-30 10:03:43.795133,walking
-3713,359,243,2213,-451,1220,2025-01-30 10:03:43.804924,walking
-3902,429,477,1633,-1797,1195,2025-01-30 10:03:43.827970,walking
-3939,423,595,910,-2006,862,2025-01-30 10:03:43.834977,walking
-3858,413,600,44,-1604,436,2025-01-30 10:03:43.855925,walking
-3719,454,556,-965,-1383,141,2025-01-30 10:03:43.903375,walking
-3554,494,658,-1580,-1922,136,2025-01-30 10:03:43.903375,walking
-3317,511,727,-1752,-2700,359,2025-01-30 10:03:43.903375,walking
-3050,408,858,-2197,-2769,747,2025-01-30 10:03:43.914359,walking
-2952,350,926,-3077,-1780,1334,2025-01-30 10:03:43.934552,walking
-3012,295,1117,-4012,-849,2036,2025-01-30 10:03:43.959992,walking
-3389,389,1310,-5144,-1227,3094,2025-01-30 10:03:43.970439,walking
-3887,352,1216,-5344,-1779,3866,2025-01-30 10:03:43.986178,walking
-4396,113,805,-4682,-1878,3715,2025-01-30 10:03:43.998579,walking
-4801,-271,406,-3254,-1444,2419,2025-01-30 10:03:44.026567,walking
-4921,-610,184,-1113,-813,507,2025-01-30 10:03:44.039338,walking
-4697,-535,699,1086,-759,-1240,2025-01-30 10:03:44.060282,walking
-4277,94,1889,1795,-997,-1921,2025-01-30 10:03:44.074684,walking
-4076,809,2705,170,-858,-1821,2025-01-30 10:03:44.092867,walking
-3991,1290,2590,-2204,-397,-1773,2025-01-30 10:03:44.106946,walking
-3961,1381,1836,-3896,528,-1816,2025-01-30 10:03:44.122836,walking
-4010,1151,980,-4023,1796,-2112,2025-01-30 10:03:44.139493,walking
-4084,608,457,-2888,2325,-2733,2025-01-30 10:03:44.155780,walking
-4158,148,270,-1588,2025,-3372,2025-01-30 10:03:44.173524,walking
-4179,-68,75,-1099,1878,-3773,2025-01-30 10:03:44.207642,walking
-4067,-30,-329,-1660,2098,-3867,2025-01-30 10:03:44.215746,walking
-3712,179,-677,-2511,2144,-3616,2025-01-30 10:03:44.222366,walking
-3199,597,-893,-3843,2220,-2917,2025-01-30 10:03:44.238930,walking
-2876,866,-763,-3916,2110,-1894,2025-01-30 10:03:44.255634,walking
-2814,1278,-165,-2892,1145,-329,2025-01-30 10:03:44.272132,walking
-3576,1007,115,-2531,-425,1056,2025-01-30 10:03:44.280243,walking
-4395,441,161,-2296,-1337,1287,2025-01-30 10:03:44.304850,walking
-4975,-150,147,-2128,18,614,2025-01-30 10:03:44.317467,walking
-5351,-579,-62,-1962,1005,-357,2025-01-30 10:03:44.333210,walking
-5193,-706,-180,-1464,329,-737,2025-01-30 10:03:44.350956,walking
-4473,-260,32,-1317,-1740,355,2025-01-30 10:03:44.366880,walking
-3864,268,195,-1643,-3535,1822,2025-01-30 10:03:44.383638,walking
-3265,786,243,-1742,-4336,2578,2025-01-30 10:03:44.400198,walking
-2826,1060,225,-1443,-3235,2233,2025-01-30 10:03:44.417139,walking
-2477,1118,177,-877,-1321,1334,2025-01-30 10:03:44.432071,walking
-2309,890,170,-184,922,590,2025-01-30 10:03:44.438828,walking
-2488,574,232,71,2696,614,2025-01-30 10:03:44.463961,
-3063,285,191,40,3468,908,2025-01-30 10:03:44.512736,walking
-3690,286,254,-98,2881,971,2025-01-30 10:03:44.513903,walking
-4194,337,399,-218,1513,787,2025-01-30 10:03:44.527938,walking
-4481,544,483,-200,-120,69,2025-01-30 10:03:44.530981,walking
-4278,745,603,-145,-948,-771,2025-01-30 10:03:44.536072,walking
-3865,742,653,-38,-1885,-1445,2025-01-30 10:03:44.558070,walking
-3288,558,640,-181,-2152,-1954,2025-01-30 10:03:44.566084,walking
-2724,347,558,-403,-1302,-2169,2025-01-30 10:03:44.597446,walking
-2343,146,436,-415,-33,-1984,2025-01-30 10:03:44.606927,walking
-2260,12,406,40,1294,-1289,2025-01-30 10:03:44.632072,walking
-2537,92,563,684,2015,-255,2025-01-30 10:03:44.654973,walking
-3177,289,879,1357,1653,536,2025-01-30 10:03:44.656585,walking
-3894,541,1256,1725,287,967,2025-01-30 10:03:44.671708,walking
-4613,785,1509,1242,-971,740,2025-01-30 10:03:44.691814,walking
-4882,914,1425,443,-1050,126,2025-01-30 10:03:44.706277,walking
-4783,898,1112,-79,-411,-471,2025-01-30 10:03:44.721597,walking
-4529,681,710,159,-41,-815,2025-01-30 10:03:44.739554,walking
-4232,136,742,1906,-588,-1272,2025-01-30 10:03:44.754245,walking
-3932,-371,1202,3620,-1397,-1714,2025-01-30 10:03:44.811211,walking
-3674,-788,1810,4154,-2530,-1764,2025-01-30 10:03:44.818741,walking
-3653,-968,1833,3624,-3481,-1417,2025-01-30 10:03:44.818741,walking
-3751,-667,1666,2362,-3355,-248,2025-01-30 10:03:44.818741,walking
-3920,204,830,1025,-350,1661,2025-01-30 10:03:44.834825,walking
-4179,1333,18,-254,3324,3856,2025-01-30 10:03:44.845582,walking
-4445,2137,-595,-1235,4185,5304,2025-01-30 10:03:44.873860,walking
-4620,2204,-1044,-369,2467,4336,2025-01-30 10:03:44.880429,walking
-4272,1434,-951,1893,-116,1178,2025-01-30 10:03:44.897160,walking
-3701,328,-647,3422,-1287,-1628,2025-01-30 10:03:44.920901,walking
-3257,-603,-502,4497,-1487,-2931,2025-01-30 10:03:44.930051,walking
-2954,-1176,42,4894,-1780,-2357,2025-01-30 10:03:44.946206,walking
-3229,-696,418,3624,-1538,-280,2025-01-30 10:03:44.971514,walking
-3810,333,529,1958,-85,1396,2025-01-30 10:03:44.979246,walking
-4332,1377,505,238,1396,2391,2025-01-30 10:03:44.996081,walking
-4717,2063,378,-656,1704,2755,2025-01-30 10:03:45.027824,walking
-5057,2236,283,-914,812,1617,2025-01-30 10:03:45.029277,walking
-4922,1705,212,-1186,-111,-1435,2025-01-30 10:03:45.111060,walking
-4309,876,53,-1502,8,-4004,2025-01-30 10:03:45.112032,walking
-3562,150,1,-1787,306,-4926,2025-01-30 10:03:45.134016,walking
-2888,-397,-61,-1851,-3,-4316,2025-01-30 10:03:45.134016,walking
-2387,-617,11,-1732,-425,-2559,2025-01-30 10:03:45.136283,walking
-2216,-464,86,-1592,-101,-198,2025-01-30 10:03:45.136283,walking
-2411,-28,147,-1528,1144,1382,2025-01-30 10:03:45.148280,walking
-2942,442,180,-1573,2513,2008,2025-01-30 10:03:45.180591,walking
-3582,800,208,-1495,2641,1783,2025-01-30 10:03:45.186573,walking
-4206,863,328,-1517,1429,1193,2025-01-30 10:03:45.197251,walking
-4530,647,498,-1680,99,600,2025-01-30 10:03:45.214947,walking
-4551,271,632,-2026,-948,39,2025-01-30 10:03:45.228149,walking
-4256,-1,703,-2475,-1943,-514,2025-01-30 10:03:45.261350,walking
-3785,-134,682,-3049,-2449,-767,2025-01-30 10:03:45.261350,walking
-3169,-43,622,-3501,-2068,-541,2025-01-30 10:03:45.299337,walking
-2704,212,529,-3231,-656,278,2025-01-30 10:03:45.299492,walking
-2577,536,628,-2486,1076,1495,2025-01-30 10:03:45.319806,walking
-2818,641,941,-2222,1835,2509,2025-01-30 10:03:45.328259,walking
-3236,551,1279,-2685,1603,2955,2025-01-30 10:03:45.344577,walking
-3681,336,1323,-3132,770,2803,2025-01-30 10:03:45.372422,walking
-4041,91,1258,-3250,-196,1934,2025-01-30 10:03:45.414398,walking
-4282,-227,1144,-2751,-889,497,2025-01-30 10:03:45.414398,walking
-4331,-586,944,-1734,-984,-681,2025-01-30 10:03:45.414398,walking
-4165,-812,881,-424,-1063,-1372,2025-01-30 10:03:45.432569,walking
-4030,-758,794,718,-699,-1125,2025-01-30 10:03:45.448027,walking
-3986,-330,1078,1628,-61,-871,2025-01-30 10:03:45.461383,walking
-3878,334,1673,1565,826,-1153,2025-01-30 10:03:45.489982,walking
-3840,852,1906,669,1880,-1896,2025-01-30 10:03:45.508950,walking
-3983,1241,1692,-383,3350,-2397,2025-01-30 10:03:45.517039,walking
-4351,1408,1246,-768,4490,-2565,2025-01-30 10:03:45.531474,walking
-4987,1262,660,-557,4501,-3134,2025-01-30 10:03:45.557055,walking
-5285,806,91,114,3428,-4193,2025-01-30 10:03:45.560067,walking
-5002,249,-253,668,2067,-5079,2025-01-30 10:03:45.590412,walking
-4140,-130,-435,480,1016,-4670,2025-01-30 10:03:45.592430,walking
-3015,-295,-553,-203,1014,-2933,2025-01-30 10:03:45.623638,walking
-2247,-129,-470,-885,1965,-1402,2025-01-30 10:03:45.631653,walking
-1645,368,-138,-2345,3669,-297,2025-01-30 10:03:45.646640,walking
-1673,878,-18,-3982,4856,551,2025-01-30 10:03:45.665467,walking
-2394,1130,-397,-4026,4548,1495,2025-01-30 10:03:45.715035,walking
-3543,1179,-629,-2220,3580,1857,2025-01-30 10:03:45.715035,walking
-4801,974,-571,-251,2996,1374,2025-01-30 10:03:45.715035,walking
-5823,508,-408,725,3024,160,2025-01-30 10:03:45.731767,walking
-6306,-179,-341,575,2556,-1101,2025-01-30 10:03:45.736376,walking
-6029,-791,-392,-31,-1158,-1339,2025-01-30 10:03:45.761252,walking
-5084,-762,-383,223,-5462,-561,2025-01-30 10:03:45.776291,walking
-4009,-369,-304,722,-6806,-100,2025-01-30 10:03:45.798869,walking
-3068,100,-325,1340,-4637,-151,2025-01-30 10:03:45.811400,walking
-2378,480,-333,2005,-2261,59,2025-01-30 10:03:45.831449,walking
-2010,688,-280,2692,-522,786,2025-01-30 10:03:45.848595,walking
-2024,684,-127,3420,1387,1626,2025-01-30 10:03:45.861194,walking
-2638,551,15,4016,3609,2080,2025-01-30 10:03:45.881667,walking
-3400,397,110,4254,4285,1866,2025-01-30 10:03:45.894965,walking
-4101,335,106,4274,3260,1421,2025-01-30 10:03:45.910462,walking
-4534,436,192,4176,1244,993,2025-01-30 10:03:45.959979,walking
-4599,617,273,3732,-146,732,2025-01-30 10:03:45.961408,walking
-4392,784,440,2867,-940,410,2025-01-30 10:03:45.964031,walking
-4077,807,455,1958,-1337,-237,2025-01-30 10:03:46.011470,walking
-3678,716,322,1731,-1294,-944,2025-01-30 10:03:46.014297,walking
-3318,606,232,1832,-984,-1168,2025-01-30 10:03:46.014297,walking
-3151,420,220,2270,-784,-882,2025-01-30 10:03:46.014297,walking
-3246,228,176,2834,-1171,-591,2025-01-30 10:03:46.038552,walking
-3438,45,225,3741,-1923,-795,2025-01-30 10:03:46.050210,walking
-3661,-123,628,5032,-2211,-1321,2025-01-30 10:03:46.070957,walking
-3842,-259,823,5864,-2114,-1995,2025-01-30 10:03:46.079398,walking
-3888,-162,904,6012,-1832,-2564,2025-01-30 10:03:46.103969,
-3709,285,951,5666,-1463,-2123,2025-01-30 10:03:46.120198,walking
-3669,790,768,5219,-1363,-849,2025-01-30 10:03:46.133499,walking
-3712,1123,623,5002,-1003,245,2025-01-30 10:03:46.152485,walking
-3923,1141,720,5111,-851,549,2025-01-30 10:03:46.172311,walking
-4261,670,982,5636,-2024,-265,2025-01-30 10:03:46.184243,walking
-4436,-30,1273,6637,-3664,-1487,2025-01-30 10:03:46.200388,walking
-4355,-723,1410,7557,-4360,-2390,2025-01-30 10:03:46.224116,walking
-4039,-945,1114,7590,-3648,-2216,2025-01-30 10:03:46.231688,walking
-3943,-322,526,7263,-2959,-550,2025-01-30 10:03:46.251720,walking
-4244,333,-130,7291,-2957,1869,2025-01-30 10:03:46.271857,walking
-4614,738,-693,7490,-1872,3540,2025-01-30 10:03:46.328802,walking
-4991,769,-1095,6960,411,3490,2025-01-30 10:03:46.328802,walking
-5141,405,-1335,6644,1476,1453,2025-01-30 10:03:46.328802,walking
-4701,33,-1295,7583,-160,-850,2025-01-30 10:03:46.336261,walking
-4003,-165,-1092,9501,-3489,-1480,2025-01-30 10:03:46.347408,walking
-3378,-180,-681,11976,-8747,-1095,2025-01-30 10:03:46.365211,walking
-3068,178,-41,13479,-12553,-847,2025-01-30 10:03:46.381381,walking
-3131,697,787,13326,-12200,-1303,2025-01-30 10:03:46.397966,walking
-3543,1089,1423,11171,-8756,-2425,2025-01-30 10:03:46.412082,walking
-4090,1134,1129,8301,-4087,-3524,2025-01-30 10:03:46.450727,walking
-4526,1007,620,6235,-1343,-4032,2025-01-30 10:03:46.450727,walking
-4564,842,93,5330,-1233,-3980,2025-01-30 10:03:46.465270,walking
-4258,742,-116,5495,-3122,-3687,2025-01-30 10:03:46.481983,walking
-3734,565,-67,6009,-4108,-3983,2025-01-30 10:03:46.506577,walking
-3256,308,19,6702,-2878,-4796,2025-01-30 10:03:46.512075,walking
-2977,69,279,7433,-1027,-5279,2025-01-30 10:03:46.529000,walking
-3012,-200,444,8135,-246,-4741,2025-01-30 10:03:46.546000,walking
-3303,-535,518,8940,-254,-3652,2025-01-30 10:03:46.563553,walking
-3600,-576,641,9464,-141,-3219,2025-01-30 10:03:46.610966,walking
-3710,-406,691,9649,-43,-3106,2025-01-30 10:03:46.614392,walking
-3700,-126,616,9935,17,-3190,2025-01-30 10:03:46.614392,walking
-3639,204,680,10043,-380,-3240,2025-01-30 10:03:46.628811,walking
-3472,446,652,9655,-1333,-3006,2025-01-30 10:03:46.657497,walking
-3267,529,800,9270,-1286,-2580,2025-01-30 10:03:46.658408,walking
-3190,403,1000,8643,-258,-2028,2025-01-30 10:03:46.664535,walking
-3280,114,962,7883,687,-1512,2025-01-30 10:03:46.691936,walking
-3336,-75,852,7443,749,-1169,2025-01-30 10:03:46.706229,walking
-3314,-76,874,6855,686,-902,2025-01-30 10:03:46.717367,walking
-3273,162,999,5845,253,-498,2025-01-30 10:03:46.730231,walking
-3258,360,1127,4949,-310,-46,2025-01-30 10:03:46.757175,walking
-3315,553,1271,4172,-451,401,2025-01-30 10:03:46.775006,walking
-3423,643,1384,3302,-234,743,2025-01-30 10:03:46.789649,walking
-3532,549,1444,2601,-466,1011,2025-01-30 10:03:46.805738,walking
-3668,278,1352,2004,-1078,1108,2025-01-30 10:03:46.823239,walking
-3615,61,1341,1531,-932,978,2025-01-30 10:03:46.839307,walking
-3444,-54,1247,1122,-209,1021,2025-01-30 10:03:46.855810,walking
-3287,7,1204,927,720,1453,2025-01-30 10:03:46.866509,walking
-3294,148,1186,794,1357,2012,2025-01-30 10:03:46.912291,walking
-3401,286,1252,619,1358,2479,2025-01-30 10:03:46.934926,walking
-3647,366,1296,541,811,2678,2025-01-30 10:03:46.936899,walking
-3939,394,1415,623,-112,2522,2025-01-30 10:03:46.938092,walking
-4185,362,1733,621,-681,1852,2025-01-30 10:03:46.948556,walking
-4325,330,2104,15,-198,756,2025-01-30 10:03:46.974107,walking
-4325,306,2090,-1040,929,-237,2025-01-30 10:03:46.981422,walking
-4398,201,1529,-1641,1719,-1136,2025-01-30 10:03:47.000179,walking
-4337,201,878,-988,2639,-1576,2025-01-30 10:03:47.018641,walking
-4567,172,470,666,3215,-1582,2025-01-30 10:03:47.032912,walking
-5006,59,322,2734,2606,-1491,2025-01-30 10:03:47.051601,walking
-5413,-155,313,3728,1879,-2043,2025-01-30 10:03:47.066128,walking
-5394,-279,212,3245,914,-3532,2025-01-30 10:03:47.081938,walking
-4417,-277,109,1639,-362,-4974,2025-01-30 10:03:47.100487,walking
-3292,-234,-189,1062,-468,-5130,2025-01-30 10:03:47.115538,walking
-2166,-28,-290,2166,-8,-4141,2025-01-30 10:03:47.133997,walking
-1506,377,13,3839,-123,-2194,2025-01-30 10:03:47.149307,walking
-1559,921,412,4083,-474,406,2025-01-30 10:03:47.167421,walking
-2608,1034,354,3987,-1385,2026,2025-01-30 10:03:47.229361,walking
-3778,964,354,4438,-2259,1662,2025-01-30 10:03:47.235887,walking
-4734,788,418,4395,-1579,-178,2025-01-30 10:03:47.235887,walking
-5410,483,356,3684,371,-2499,2025-01-30 10:03:47.235887,walking
-5725,136,185,3396,1403,-4178,2025-01-30 10:03:47.252235,walking
-5540,-61,-26,4000,165,-4333,2025-01-30 10:03:47.261439,walking
-4849,-32,-226,4912,-3699,-2948,2025-01-30 10:03:47.288063,walking
-3965,188,-28,5886,-5175,-1781,2025-01-30 10:03:47.294909,walking
-3196,508,334,6489,-3633,-1319,2025-01-30 10:03:47.306945,walking
-2748,768,523,6863,-1717,-1648,2025-01-30 10:03:47.318546,walking
-2556,698,331,7060,-1107,-1927,2025-01-30 10:03:47.343241,walking
-2605,492,57,7711,-948,-1677,2025-01-30 10:03:47.359176,walking
-3013,365,55,8585,-312,-1078,2025-01-30 10:03:47.375952,walking
-3630,319,309,9017,214,-747,2025-01-30 10:03:47.389910,walking
-4064,450,578,8820,475,-865,2025-01-30 10:03:47.410210,walking
-4291,580,634,8180,454,-1286,2025-01-30 10:03:47.432879,walking
-4220,678,483,7563,-438,-1682,2025-01-30 10:03:47.457878,walking
-3967,741,343,7033,-1767,-1902,2025-01-30 10:03:47.461234,walking
-3596,855,308,6750,-2276,-1876,2025-01-30 10:03:47.506752,walking
-3259,1023,436,6450,-1932,-1729,2025-01-30 10:03:47.513892,walking
-3163,1068,595,5902,-1460,-1609,2025-01-30 10:03:47.513892,walking
-3122,1029,722,5347,-837,-1522,2025-01-30 10:03:47.517594,walking
-3343,802,893,4921,-229,-1634,2025-01-30 10:03:47.538218,walking
-3625,489,1023,4297,-239,-1961,2025-01-30 10:03:47.559976,walking
-3676,303,1043,3700,-755,-2120,2025-01-30 10:03:47.569514,walking
-3726,197,913,3275,-1806,-1998,2025-01-30 10:03:47.584942,walking
-3786,198,795,3445,-2680,-1642,2025-01-30 10:03:47.604669,walking
-3838,304,896,4213,-3370,-1380,2025-01-30 10:03:47.619398,walking
-3844,543,1163,5006,-3825,-1552,2025-01-30 10:03:47.646939,walking
-3847,685,1475,5364,-4181,-2102,2025-01-30 10:03:47.651787,walking
-3800,665,1675,5273,-4270,-2766,2025-01-30 10:03:47.679421,walking
-3687,429,1570,5056,-3764,-3409,2025-01-30 10:03:47.679421,walking
-3493,27,1343,5072,-2355,-3755,2025-01-30 10:03:47.707407,walking
-3350,-236,1263,5678,-1598,-3430,2025-01-30 10:03:47.717849,walking
-3408,-440,1352,6937,-2094,-2574,2025-01-30 10:03:47.729035,
-3525,-559,1565,8590,-3396,-2052,2025-01-30 10:03:47.746142,walking
-3646,-511,1939,10131,-4654,-2364,2025-01-30 10:03:47.762410,walking
-3687,-210,2314,10610,-5157,-2949,2025-01-30 10:03:47.823168,walking
-3690,322,2442,9243,-4894,-2926,2025-01-30 10:03:47.827917,walking
-3716,910,2178,7146,-4613,-2044,2025-01-30 10:03:47.829326,walking
-3665,1275,1390,5561,-3066,-674,2025-01-30 10:03:47.829326,walking
-3800,1385,836,4493,279,558,2025-01-30 10:03:47.849668,walking
-4155,1185,382,3823,3334,1154,2025-01-30 10:03:47.861146,walking
-4542,721,-47,3686,5099,1292,2025-01-30 10:03:47.869165,walking
-4859,221,-523,4062,5147,911,2025-01-30 10:03:47.894992,walking
-4974,-237,-1088,5476,3275,-263,2025-01-30 10:03:47.905151,walking
-4729,-521,-1271,8386,-73,-1986,2025-01-30 10:03:47.939543,walking
-4127,-571,-868,11285,-3252,-3592,2025-01-30 10:03:47.939543,walking
-3405,-371,-171,13398,-4666,-4607,2025-01-30 10:03:47.962801,walking
-2824,199,514,13774,-4348,-4478,2025-01-30 10:03:47.996300,walking
-2860,790,771,12606,-3175,-3358,2025-01-30 10:03:47.996300,walking
-3301,1168,776,11304,-1735,-2370,2025-01-30 10:03:48.012578,walking
-4033,1344,693,9464,-250,-2037,2025-01-30 10:03:48.062920,walking
-4511,1241,494,7714,-2,-2617,2025-01-30 10:03:48.108668,walking
-4590,877,232,6785,-650,-3561,2025-01-30 10:03:48.132657,walking
-4317,704,287,6516,-900,-4720,2025-01-30 10:03:48.166291,walking
-3808,670,493,5950,-514,-5540,2025-01-30 10:03:48.181811,walking
-3293,690,540,5337,275,-5566,2025-01-30 10:03:48.197656,walking
-2968,638,414,5194,357,-4680,2025-01-30 10:03:48.204235,walking
-2976,439,243,5486,-253,-3281,2025-01-30 10:03:48.212257,walking
-3270,179,357,5880,-1356,-1895,2025-01-30 10:03:48.231685,walking
-3687,-25,546,5927,-2440,-1303,2025-01-30 10:03:48.250523,walking
-4004,-58,870,5783,-3614,-1326,2025-01-30 10:03:48.275939,walking
-4122,46,1334,5003,-5232,-1957,2025-01-30 10:03:48.285603,walking
-3905,239,1492,4132,-5228,-2477,2025-01-30 10:03:48.294520,walking
-3499,428,1445,3071,-4060,-2959,2025-01-30 10:03:48.318718,walking
-3158,437,1295,2342,-3054,-3042,2025-01-30 10:03:48.334664,walking
-2817,358,1103,1922,-2133,-2778,2025-01-30 10:03:48.343103,walking
-2518,238,981,1928,-1232,-2152,2025-01-30 10:03:48.426023,walking
-2349,39,1025,2062,-175,-1137,2025-01-30 10:03:48.434130,walking
-2397,-31,1220,2160,871,-3,2025-01-30 10:03:48.444942,walking
-2612,-20,1437,1886,1627,1107,2025-01-30 10:03:48.449662,walking
-2924,62,1720,1185,1919,1936,2025-01-30 10:03:48.451712,walking
-3246,183,1823,248,1936,2347,2025-01-30 10:03:48.457895,walking
-3537,278,1791,-686,1620,2242,2025-01-30 10:03:48.495868,walking
-3672,341,1550,-1168,1041,1807,2025-01-30 10:03:48.505883,walking
-3680,269,1311,-891,643,1329,2025-01-30 10:03:48.511372,walking
-3389,73,1003,-572,2043,2314,2025-01-30 10:03:48.514957,walking
-3710,364,1335,-341,2945,2558,2025-01-30 10:03:48.531146,walking
-4112,740,2016,-496,2367,2364,2025-01-30 10:03:48.531146,walking
-4307,1043,2732,-1385,880,2124,2025-01-30 10:03:48.531146,walking
-4371,1148,3177,-3288,125,1830,2025-01-30 10:03:48.560163,walking
-4349,794,2853,-5220,164,909,2025-01-30 10:03:48.611492,walking
-4367,136,2030,-5975,437,-432,2025-01-30 10:03:48.611492,walking
-4246,-591,1183,-5238,2670,-1626,2025-01-30 10:03:48.614643,walking
-4097,-1136,534,-3159,6293,-2327,2025-01-30 10:03:48.614643,walking
-4005,-1179,175,-895,7743,-2644,2025-01-30 10:03:48.621855,walking
-3930,-974,-296,1851,5965,-2359,2025-01-30 10:03:48.637884,walking
-3981,-486,-807,4138,4964,-2355,2025-01-30 10:03:48.640865,walking
-4183,131,-1033,5440,3814,-3369,2025-01-30 10:03:48.646378,walking
-3984,809,-737,6488,1949,-5007,2025-01-30 10:03:48.670815,walking
-3625,1295,-29,6117,2141,-5281,2025-01-30 10:03:48.711580,walking
-3500,1509,498,4411,2406,-4069,2025-01-30 10:03:48.716815,walking
-3574,1425,714,3387,1112,-2112,2025-01-30 10:03:48.721526,walking
-3748,1133,839,3115,-228,-376,2025-01-30 10:03:48.733550,walking
-4085,707,506,2677,-251,-375,2025-01-30 10:03:48.746777,walking
-4200,124,-43,2908,1588,-2026,2025-01-30 10:03:48.772100,walking
-4270,-477,-469,4179,3607,-3984,2025-01-30 10:03:48.781644,walking
-4080,-715,-581,5119,2701,-3742,2025-01-30 10:03:48.799660,walking
-3818,-646,-463,5421,640,-1692,2025-01-30 10:03:48.819542,walking
-3692,-245,-269,5235,-1187,656,2025-01-30 10:03:48.828389,walking
-3639,298,-63,5032,-1958,1781,2025-01-30 10:03:48.850850,walking
-3505,705,103,5202,-1833,1473,2025-01-30 10:03:48.865604,walking
-3301,883,179,5771,-1046,303,2025-01-30 10:03:48.878181,walking
-3190,759,122,6590,192,-1069,2025-01-30 10:03:48.894651,walking
-3161,452,78,7414,802,-1518,2025-01-30 10:03:48.915003,walking
-3341,155,240,7901,200,-1075,2025-01-30 10:03:48.928254,walking
-3639,28,449,7907,-924,-550,2025-01-30 10:03:48.951654,walking
-3860,150,580,7554,-1711,-519,2025-01-30 10:03:48.962297,walking
-3822,468,716,6811,-1694,-864,2025-01-30 10:03:49.011327,walking
-3571,858,669,5948,-964,-932,2025-01-30 10:03:49.014768,walking
-3295,1117,651,5092,-142,-845,2025-01-30 10:03:49.014768,walking
-3149,1205,504,4358,542,-821,2025-01-30 10:03:49.026812,walking
-3183,1101,438,4132,899,-918,2025-01-30 10:03:49.035112,walking
-3458,791,572,4287,936,-1268,2025-01-30 10:03:49.059992,walking
-3705,562,879,4118,640,-1594,2025-01-30 10:03:49.069499,walking
-4000,467,1181,3511,-460,-1689,2025-01-30 10:03:49.082168,walking
-4251,300,1307,3241,-1727,-1620,2025-01-30 10:03:49.098309,walking
-4332,42,1216,3594,-2293,-1883,2025-01-30 10:03:49.115057,walking
-4098,-130,1081,3776,-1598,-2297,2025-01-30 10:03:49.140914,walking
-3800,-116,859,3432,-694,-2180,2025-01-30 10:03:49.156832,walking
-3541,-20,541,3571,164,-1933,2025-01-30 10:03:49.178754,walking
-3249,91,535,4247,1445,-1847,2025-01-30 10:03:49.190710,walking
-3065,307,930,4901,3272,-1553,2025-01-30 10:03:49.206905,walking
-3204,219,1229,5597,4117,-1143,2025-01-30 10:03:49.233178,walking
-3591,-130,1313,6335,4097,-1099,2025-01-30 10:03:49.238371,walking
-4010,-436,1309,7027,3301,-1293,2025-01-30 10:03:49.249949,walking
-4509,-422,1245,6870,1962,-1094,2025-01-30 10:03:49.311240,walking
-4900,19,1154,6313,1412,-387,2025-01-30 10:03:49.313785,walking
-5134,611,835,5812,1563,411,2025-01-30 10:03:49.313785,walking
-5245,1232,401,4561,1979,915,2025-01-30 10:03:49.313785,walking
-5178,1641,-78,1631,1997,603,2025-01-30 10:03:49.336324,walking
-4655,1567,-801,-624,1708,-184,2025-01-30 10:03:49.350357,walking
-4174,1121,-1352,-115,605,-135,2025-01-30 10:03:49.369774,walking
-3828,471,-1487,1991,-1743,230,2025-01-30 10:03:49.378121,
-3640,-335,-1207,5125,-4432,-380,2025-01-30 10:03:49.400081,walking
-3359,-769,-727,7635,-5485,-1455,2025-01-30 10:03:49.416095,walking
-3187,-510,12,8734,-4634,-2300,2025-01-30 10:03:49.430356,walking
-3338,120,188,8077,-2393,-2049,2025-01-30 10:03:49.448858,walking
-3741,760,124,7055,-793,-716,2025-01-30 10:03:49.465376,walking
-4246,1153,-211,5963,174,1011,2025-01-30 10:03:49.499934,walking
-4836,1243,-644,5061,913,1443,2025-01-30 10:03:49.516016,walking
-5241,952,-919,4393,318,-212,2025-01-30 10:03:49.530740,walking
-5098,589,-556,4357,-1069,-2818,2025-01-30 10:03:49.530740,walking
-4453,367,-70,3915,-2238,-4322,2025-01-30 10:03:49.616741,walking
-3857,235,-37,3667,-2466,-4462,2025-01-30 10:03:49.616741,walking
-3473,125,-154,4002,-2760,-3901,2025-01-30 10:03:49.616741,walking
-3105,87,-209,4595,-3206,-2998,2025-01-30 10:03:49.624786,walking
-2875,42,-151,5048,-3388,-1919,2025-01-30 10:03:49.632994,walking
-2811,-12,-42,5311,-3192,-887,2025-01-30 10:03:49.632994,walking
-2935,-39,60,5205,-2036,-189,2025-01-30 10:03:49.648361,walking
-3122,-20,245,4612,-840,-170,2025-01-30 10:03:49.650020,walking
-3099,139,417,3885,315,-445,2025-01-30 10:03:49.665197,walking
-2907,343,473,3237,842,-385,2025-01-30 10:03:49.683364,walking
-2639,407,301,2843,995,99,2025-01-30 10:03:49.700100,walking
-2528,386,127,2898,2163,1014,2025-01-30 10:03:49.716522,walking
-2698,453,282,2928,3416,2046,2025-01-30 10:03:49.731520,walking
-3144,568,544,2268,3132,2836,2025-01-30 10:03:49.747735,walking
-3637,631,712,1156,1721,3106,2025-01-30 10:03:49.786349,walking
-3921,610,723,50,968,3022,2025-01-30 10:03:49.794589,walking
-4103,658,807,-1216,995,2664,2025-01-30 10:03:49.800597,walking
-4187,684,850,-2452,395,2326,2025-01-30 10:03:49.811491,walking
-4153,643,913,-3119,-750,2072,2025-01-30 10:03:49.827623,walking
-4071,607,1060,-3452,-1748,1539,2025-01-30 10:03:49.843726,walking
-3926,364,1079,-3693,-3080,1115,2025-01-30 10:03:49.868262,walking
-3929,-41,751,-3073,-3729,1069,2025-01-30 10:03:49.914543,walking
-3977,-502,577,-1720,-3374,787,2025-01-30 10:03:49.914543,walking
-3953,-756,684,-496,-2066,536,2025-01-30 10:03:49.914543,walking
-3982,-794,793,636,-396,323,2025-01-30 10:03:49.928460,walking
-4149,-450,1087,2093,890,-58,2025-01-30 10:03:49.943572,walking
-4302,102,2028,2729,683,-739,2025-01-30 10:03:49.959728,walking
-4257,579,2679,1669,-230,-1192,2025-01-30 10:03:49.977949,walking
-4062,938,2770,-575,-476,-1244,2025-01-30 10:03:49.994627,walking
-4027,1026,1837,-3043,641,-809,2025-01-30 10:03:50.011611,walking
-4056,817,456,-3602,2558,-852,2025-01-30 10:03:50.033198,walking
-4240,350,-1079,-2650,3310,-1940,2025-01-30 10:03:50.043670,walking
-4312,-155,-2314,32,2565,-4218,2025-01-30 10:03:50.059365,walking
-3805,-197,-2351,2047,2405,-5951,2025-01-30 10:03:50.076719,walking
-3433,97,-1634,2643,2013,-5832,2025-01-30 10:03:50.093341,walking
-3337,680,-872,2594,880,-4276,2025-01-30 10:03:50.099821,walking
-3539,1313,-13,1665,54,-2181,2025-01-30 10:03:50.126884,walking
-4037,1633,382,299,636,-462,2025-01-30 10:03:50.136374,walking
-4666,1530,221,-792,1026,25,2025-01-30 10:03:50.161484,walking
-5076,1099,-236,-1128,-307,-1057,2025-01-30 10:03:50.229910,walking
-4933,308,-827,-417,-1675,-2608,2025-01-30 10:03:50.245272,walking
-4569,-468,-1010,1054,-1560,-3126,2025-01-30 10:03:50.251680,walking
-4313,-1065,-1050,1996,-2157,-2458,2025-01-30 10:03:50.253709,walking
-3969,-1315,-755,2744,-3406,-738,2025-01-30 10:03:50.261722,walking
-3580,-973,-377,3274,-3624,1042,2025-01-30 10:03:50.261722,walking
-3493,-152,-197,3494,-2348,2070,2025-01-30 10:03:50.261722,walking
-3459,633,-237,3823,-1557,1475,2025-01-30 10:03:50.277902,walking
-3332,1114,-279,4768,-1550,238,2025-01-30 10:03:50.302079,walking
-3152,1285,-206,6085,-1259,-707,2025-01-30 10:03:50.314781,walking
-3222,950,71,7017,-372,-839,2025-01-30 10:03:50.330248,walking
-3549,510,418,6990,61,-513,2025-01-30 10:03:50.346689,walking
-3922,115,595,6161,-127,-446,2025-01-30 10:03:50.366221,walking
-4099,-42,606,4973,-1083,-791,2025-01-30 10:03:50.384005,walking
-3900,103,440,4292,-1853,-1175,2025-01-30 10:03:50.403751,walking
-3498,434,448,3943,-1767,-1277,2025-01-30 10:03:50.416898,walking
-3097,632,444,3762,-687,-1167,2025-01-30 10:03:50.428453,walking
-2898,651,429,3922,747,-1180,2025-01-30 10:03:50.452161,walking
-2792,509,285,4284,1901,-1398,2025-01-30 10:03:50.461567,walking
-2876,360,365,4510,2241,-1599,2025-01-30 10:03:50.499411,walking
-3057,389,715,4033,1417,-1303,2025-01-30 10:03:50.511511,walking
-3352,437,806,3625,-208,-881,2025-01-30 10:03:50.511511,walking
-3650,496,826,4015,-1567,-870,2025-01-30 10:03:50.526970,walking
-3844,524,1094,4141,-1929,-1333,2025-01-30 10:03:50.542636,walking
-3928,445,1097,3626,-1596,-1925,2025-01-30 10:03:50.558606,walking
-3943,325,843,3510,-1184,-2330,2025-01-30 10:03:50.576072,walking
-3862,258,688,3523,-980,-2239,2025-01-30 10:03:50.608482,walking
-3759,96,736,3142,-899,-1725,2025-01-30 10:03:50.608482,walking
-3668,-159,907,2994,-632,-1255,2025-01-30 10:03:50.624319,walking
-3762,-509,1235,3216,-1290,-999,2025-01-30 10:03:50.640558,walking
-4066,-823,1340,4059,-2711,-804,2025-01-30 10:03:50.658386,walking
-4697,-701,1296,4413,-4687,160,2025-01-30 10:03:50.674045,walking
-5200,-161,975,3751,-5506,2209,2025-01-30 10:03:50.691429,walking
-5311,618,201,2731,-3035,3704,2025-01-30 10:03:50.708086,walking
-5095,1457,-166,881,45,4253,2025-01-30 10:03:50.729003,walking
-4680,1785,-684,256,-101,3608,2025-01-30 10:03:50.737402,walking
-4146,1527,-1050,2149,-1730,1574,2025-01-30 10:03:50.753680,walking
-3540,743,-1210,4750,-2200,-788,2025-01-30 10:03:50.797583,walking
-3069,-67,-1141,7445,-1151,-2287,2025-01-30 10:03:50.797583,walking
-2862,-665,-684,9373,-696,-2355,2025-01-30 10:03:50.797583,walking
-3076,-606,172,9458,-1012,-885,2025-01-30 10:03:50.816168,walking
-3860,120,860,7710,-632,544,2025-01-30 10:03:50.836718,walking
-4573,848,882,5250,704,633,2025-01-30 10:03:50.853063,walking
-5064,1510,364,2776,1968,-15,2025-01-30 10:03:50.869210,walking
-5317,1858,-229,1567,1478,-777,2025-01-30 10:03:50.914771,walking
-5345,1863,-547,1465,-602,-1567,2025-01-30 10:03:50.914771,walking
-5110,1440,-506,1531,-3116,-2842,2025-01-30 10:03:50.914771,walking
-4572,712,-150,1720,-4166,-4333,2025-01-30 10:03:50.933995,walking
-3928,-39,196,1697,-3852,-5556,2025-01-30 10:03:50.944897,walking
-3166,-773,181,1803,-3316,-5683,2025-01-30 10:03:50.965527,walking
-2503,-1024,114,2581,-2514,-4506,2025-01-30 10:03:50.982326,walking
-2219,-768,112,3619,-1052,-2348,2025-01-30 10:03:50.991844,
-2468,-196,230,4181,-251,-58,2025-01-30 10:03:51.015021,walking
-3047,273,296,4537,-804,1576,2025-01-30 10:03:51.027175,walking
-3627,592,387,4488,-1557,1808,2025-01-30 10:03:51.061633,walking
-3917,704,533,4153,-1888,945,2025-01-30 10:03:51.064147,walking
-3925,619,644,3643,-2126,-270,2025-01-30 10:03:51.081840,walking
-3665,472,844,2798,-2596,-1284,2025-01-30 10:03:51.097497,walking
-3267,323,825,1811,-2794,-1757,2025-01-30 10:03:51.117076,walking
-2900,212,696,1124,-2105,-1617,2025-01-30 10:03:51.130296,walking
-2606,78,523,819,-1143,-977,2025-01-30 10:03:51.149443,walking
-2497,-55,528,881,-447,-13,2025-01-30 10:03:51.163817,walking
-2635,-180,587,1142,-907,1265,2025-01-30 10:03:51.203386,walking
-3058,-228,737,1508,-2167,2398,2025-01-30 10:03:51.215543,walking
-3550,-167,1078,1843,-2687,2935,2025-01-30 10:03:51.215543,walking
-4000,-30,1532,1751,-2572,2747,2025-01-30 10:03:51.230615,walking
-4301,83,1778,1255,-1907,1666,2025-01-30 10:03:51.240147,walking
-4351,64,1569,1315,-1806,90,2025-01-30 10:03:51.257309,walking
-4065,-142,1270,2113,-2591,-1105,2025-01-30 10:03:51.274034,walking
-3602,-413,1044,2972,-2451,-1456,2025-01-30 10:03:51.298518,walking
-3160,-578,999,3419,-529,-884,2025-01-30 10:03:51.310035,walking
-3005,-425,1123,3806,1247,513,2025-01-30 10:03:51.324140,walking
-3281,-25,1330,4105,1760,1776,2025-01-30 10:03:51.344205,walking
-3881,341,1506,4356,677,2043,2025-01-30 10:03:51.361556,walking
-4247,540,1664,4378,-224,1094,2025-01-30 10:03:51.372777,walking
-4614,597,1900,3608,-322,-692,2025-01-30 10:03:51.393587,walking
-4826,478,1652,2693,-163,-2350,2025-01-30 10:03:51.411427,walking
-4828,165,985,2592,512,-3691,2025-01-30 10:03:51.431378,walking
-4705,-46,380,3386,956,-4628,2025-01-30 10:03:51.445031,walking
-4367,-138,-157,4426,915,-5516,2025-01-30 10:03:51.461873,walking
-3897,-110,-505,5384,1088,-5943,2025-01-30 10:03:51.470789,walking
-3467,69,-801,6284,2122,-5810,2025-01-30 10:03:51.511858,walking
-3181,253,-860,7071,2730,-5307,2025-01-30 10:03:51.515755,walking
-3082,548,-681,7577,3033,-4462,2025-01-30 10:03:51.520436,walking
-3068,863,-142,7355,3649,-2953,2025-01-30 10:03:51.540055,walking
-3419,847,177,6911,4623,-1479,2025-01-30 10:03:51.553124,walking
-4409,603,63,6910,3412,-1104,2025-01-30 10:03:51.571962,walking
-5130,189,-477,7617,-265,-2159,2025-01-30 10:03:51.591662,walking
-5183,-264,-807,9599,-1778,-3611,2025-01-30 10:03:51.599318,walking
-4921,-465,-396,10941,-1502,-4132,2025-01-30 10:03:51.621824,walking
-4577,-431,138,10593,-2061,-3343,2025-01-30 10:03:51.629870,walking
-4234,-110,330,9536,-2980,-1881,2025-01-30 10:03:51.646072,walking
-3944,404,270,8518,-2957,-705,2025-01-30 10:03:51.665149,walking
-3666,923,48,7776,-2076,69,2025-01-30 10:03:51.684067,walking
-3441,1298,-69,7511,-871,144,2025-01-30 10:03:51.696636,walking
-3262,1412,-106,7815,-360,-252,2025-01-30 10:03:51.712815,walking
-3053,1306,-28,8278,-196,-879,2025-01-30 10:03:51.737016,walking
-2936,924,168,8110,423,-1012,2025-01-30 10:03:51.750256,walking
-3042,512,340,7851,778,-461,2025-01-30 10:03:51.767222,walking
-3229,207,463,7871,1048,-1,2025-01-30 10:03:51.814569,walking
-3515,-13,638,7886,1297,48,2025-01-30 10:03:51.814569,walking
-3687,-64,658,7668,1220,-175,2025-01-30 10:03:51.814569,walking
-3696,90,562,7239,1195,-327,2025-01-30 10:03:51.847748,walking
-3634,377,400,6952,1261,-304,2025-01-30 10:03:51.848712,walking
-3620,594,298,6929,1016,-276,2025-01-30 10:03:51.865874,walking
-3521,794,427,6893,958,-318,2025-01-30 10:03:51.883583,walking
-3448,933,575,6497,1645,-336,2025-01-30 10:03:51.894753,walking
-3491,1048,693,5602,2379,-288,2025-01-30 10:03:51.910395,walking
-3566,1044,691,4596,2370,-340,2025-01-30 10:03:51.926082,walking
-3561,928,669,3609,2363,-511,2025-01-30 10:03:51.943873,walking
-3521,850,613,2601,2221,-355,2025-01-30 10:03:51.965927,walking
-3594,729,520,2137,1913,82,2025-01-30 10:03:51.982070,walking
-3828,596,449,2680,1197,330,2025-01-30 10:03:51.989364,walking
-4193,510,525,3415,76,-34,2025-01-30 10:03:52.011883,walking
-4373,337,759,3933,-641,-1035,2025-01-30 10:03:52.028066,walking
-4491,167,863,4150,-629,-2016,2025-01-30 10:03:52.045449,walking
-4354,-54,805,4310,-113,-2636,2025-01-30 10:03:52.061412,walking
-4034,-304,675,4614,784,-2603,2025-01-30 10:03:52.114473,walking
-3745,-447,550,5440,1184,-2014,2025-01-30 10:03:52.128362,walking
-3546,-605,442,6947,888,-1350,2025-01-30 10:03:52.133420,walking
-3420,-666,602,8540,469,-1017,2025-01-30 10:03:52.141870,walking
-3447,-630,817,10033,601,-1075,2025-01-30 10:03:52.141870,walking
-3697,-421,951,11017,216,-1118,2025-01-30 10:03:52.151870,walking
-4124,-2,961,11195,-346,-683,2025-01-30 10:03:52.170090,walking
-4597,484,867,10722,-1049,38,2025-01-30 10:03:52.187474,walking
-4881,974,522,9679,-1144,881,2025-01-30 10:03:52.202889,walking
-4926,1207,33,7792,-353,955,2025-01-30 10:03:52.220375,walking
-4747,1285,-417,6005,583,385,2025-01-30 10:03:52.231308,walking
-4262,1204,-987,4318,1474,-77,2025-01-30 10:03:52.253070,walking
-3914,899,-1354,4982,1660,-109,2025-01-30 10:03:52.263319,walking
-3687,436,-1287,6994,-136,-364,2025-01-30 10:03:52.279372,walking
-3428,-252,-1155,9391,-2697,-1032,2025-01-30 10:03:52.305702,walking
-3177,-595,-916,11591,-3512,-1574,2025-01-30 10:03:52.329627,walking
-3062,-385,-297,12565,-2671,-1454,2025-01-30 10:03:52.339531,walking
-3413,194,-29,11683,-1272,-1010,2025-01-30 10:03:52.345786,walking
-4136,917,1,10001,-881,-517,2025-01-30 10:03:52.371989,walking
-4695,1357,-129,8486,-1102,-373,2025-01-30 10:03:52.396399,walking
-5144,1512,-415,6713,-1084,-815,2025-01-30 10:03:52.416928,walking
-5329,1314,-619,5738,-1560,-2053,2025-01-30 10:03:52.416928,walking
-4916,940,-517,5716,-2782,-4304,2025-01-30 10:03:52.432983,walking
-3904,725,-103,5530,-2938,-5785,2025-01-30 10:03:52.456282,walking
-2987,481,-77,5375,-1573,-6131,2025-01-30 10:03:52.464472,walking
-2145,201,-248,6040,992,-5384,2025-01-30 10:03:52.481074,walking
-1812,131,-359,6586,3940,-3810,2025-01-30 10:03:52.497952,walking
-1872,67,-605,6814,5300,-1905,2025-01-30 10:03:52.522986,walking
-2296,36,-611,7084,4720,-162,2025-01-30 10:03:52.529282,walking
-2937,104,-337,6952,3298,1076,2025-01-30 10:03:52.546274,walking
-3641,132,17,6154,1772,1652,2025-01-30 10:03:52.568391,walking
-4287,162,91,4979,363,1400,2025-01-30 10:03:52.579968,walking
-4680,216,86,4174,-386,532,2025-01-30 10:03:52.596273,walking
-4718,301,-15,3439,-1383,-789,2025-01-30 10:03:52.612714,walking
-4400,339,-208,2965,-2779,-1767,2025-01-30 10:03:52.630302,
-3958,295,-334,2960,-4234,-1803,2025-01-30 10:03:52.645865,walking
-3582,229,-261,3327,-5179,-871,2025-01-30 10:03:52.667866,walking
-3437,81,24,3543,-5802,353,2025-01-30 10:03:52.696124,walking
-3487,-17,378,3397,-5879,957,2025-01-30 10:03:52.714627,walking
-3484,-5,754,2945,-5102,890,2025-01-30 10:03:52.714627,walking
-3484,179,1028,1908,-3835,424,2025-01-30 10:03:52.732950,walking
-3635,305,976,1000,-2951,60,2025-01-30 10:03:52.744906,walking
-3779,312,807,1215,-2681,83,2025-01-30 10:03:52.757085,walking
-3944,282,828,1646,-2431,198,2025-01-30 10:03:52.776620,walking
-4049,264,804,1505,-2198,531,2025-01-30 10:03:52.792429,walking
-4123,261,781,1341,-1807,763,2025-01-30 10:03:52.814508,walking
-4123,313,860,1247,-1096,601,2025-01-30 10:03:52.826642,walking
-4171,494,1110,881,-871,104,2025-01-30 10:03:52.851381,walking
-4032,644,1444,353,-959,-117,2025-01-30 10:03:52.851381,walking
-3811,764,1790,-920,-737,77,2025-01-30 10:03:52.881403,walking
-3748,734,1845,-2147,-258,359,2025-01-30 10:03:52.891000,walking
-3898,649,1710,-3053,409,364,2025-01-30 10:03:52.912752,walking
-4266,377,1120,-3167,2220,-287,2025-01-30 10:03:52.924615,walking
-4569,-71,391,-2535,4024,-1363,2025-01-30 10:03:52.942566,walking
-4789,-509,-259,-1482,4283,-2626,2025-01-30 10:03:52.959497,walking
-4706,-697,-812,224,3936,-4093,2025-01-30 10:03:52.996707,walking
-4520,-365,-1113,982,4465,-5089,2025-01-30 10:03:53.012836,walking
-4277,281,-1454,439,2930,-5684,2025-01-30 10:03:53.012836,walking
-3755,840,-1767,256,-722,-5685,2025-01-30 10:03:53.027843,walking
-2804,1183,-1303,2856,-1925,-4578,2025-01-30 10:03:53.035929,walking
-2436,1080,-1,4345,-331,-2317,2025-01-30 10:03:53.063967,walking
-2846,440,570,3590,-809,-90,2025-01-30 10:03:53.079517,walking
-3720,-571,311,2557,-2070,1320,2025-01-30 10:03:53.094799,walking
-4464,-1283,-390,2231,396,993,2025-01-30 10:03:53.113072,walking
-4927,-1305,-908,3157,3228,128,2025-01-30 10:03:53.119794,walking
-5072,-820,-1137,4813,3339,-102,2025-01-30 10:03:53.136805,walking
-4841,68,-887,5722,710,839,2025-01-30 10:03:53.146139,walking
-4603,843,-684,5521,-2183,1574,2025-01-30 10:03:53.162799,walking
-4200,1338,-556,5265,-3698,980,2025-01-30 10:03:53.189689,walking
-3659,1430,-283,5359,-3641,-89,2025-01-30 10:03:53.211478,walking
-3128,1226,128,5400,-2990,-638,2025-01-30 10:03:53.219633,walking
-2606,799,473,4921,-1255,-176,2025-01-30 10:03:53.246307,walking
-2473,418,423,4253,724,668,2025-01-30 10:03:53.252215,walking
-2814,166,146,3548,2325,1155,2025-01-30 10:03:53.308500,walking
-3262,169,-65,3212,2873,843,2025-01-30 10:03:53.308500,walking
-3669,299,-167,3123,2416,365,2025-01-30 10:03:53.324545,walking
-3912,534,-104,2978,1400,43,2025-01-30 10:03:53.326169,walking
-4074,694,-11,2685,195,70,2025-01-30 10:03:53.332816,walking
-4198,752,-22,2562,-743,114,2025-01-30 10:03:53.347909,walking
-4106,692,44,2533,-963,-306,2025-01-30 10:03:53.372307,walking
-3665,579,79,2175,-507,-1165,2025-01-30 10:03:53.388378,walking
-3203,421,92,1919,380,-1591,2025-01-30 10:03:53.402561,walking
-2852,371,101,1461,692,-1458,2025-01-30 10:03:53.430796,walking
-2729,417,117,1335,390,-670,2025-01-30 10:03:53.430796,walking
-3087,549,267,1651,-571,299,2025-01-30 10:03:53.452795,walking
-3692,566,597,2123,-1811,496,2025-01-30 10:03:53.461601,walking
-4061,626,1146,1879,-2121,-128,2025-01-30 10:03:53.480522,walking
-4234,732,1071,669,-1226,-715,2025-01-30 10:03:53.497639,walking
-4254,713,763,453,-132,-938,2025-01-30 10:03:53.516541,walking
-4232,665,461,800,990,-1201,2025-01-30 10:03:53.528616,walking
-4127,429,367,993,1268,-1668,2025-01-30 10:03:53.544797,walking
-3950,114,412,1191,578,-2090,2025-01-30 10:03:53.566379,walking
-3745,-279,625,2042,-163,-1979,2025-01-30 10:03:53.615783,walking
-3631,-545,1061,2738,-394,-1423,2025-01-30 10:03:53.615783,walking
-3740,-546,1274,2764,-869,-767,2025-01-30 10:03:53.615783,walking
-3852,-431,1023,2938,-889,-291,2025-01-30 10:03:53.636298,walking
-4013,6,902,2950,222,243,2025-01-30 10:03:53.660282,walking
-4405,532,528,1304,1316,546,2025-01-30 10:03:53.660282,walking
-4680,851,-42,322,910,495,2025-01-30 10:03:53.676720,walking
-4662,1021,-425,-5,875,790,2025-01-30 10:03:53.694129,walking
-4537,911,-902,-324,1831,1342,2025-01-30 10:03:53.710187,walking
-4369,549,-1367,-270,1129,1777,2025-01-30 10:03:53.728100,walking
-4007,166,-1502,1100,-396,1905,2025-01-30 10:03:53.743459,walking
-3661,-121,-1129,2928,-1367,1354,2025-01-30 10:03:53.756786,walking
-3306,-403,-812,4762,-2251,-147,2025-01-30 10:03:53.777673,walking
-3077,-383,-537,6461,-2573,-1328,2025-01-30 10:03:53.789687,walking
-3062,-115,-236,7278,-1368,-1541,2025-01-30 10:03:53.812029,walking
-3728,367,-251,6892,-775,-747,2025-01-30 10:03:53.828270,walking
-4484,811,-118,5269,-2181,490,2025-01-30 10:03:53.840550,walking
-5098,1107,-417,3394,-3212,903,2025-01-30 10:03:53.861526,walking
-5402,1156,-684,2920,-3066,-581,2025-01-30 10:03:53.911481,walking
-5092,983,-467,3309,-2137,-3292,2025-01-30 10:03:53.911481,walking
-4356,822,-257,3244,-746,-5236,2025-01-30 10:03:53.914178,walking
-3679,555,-212,3177,-199,-6124,2025-01-30 10:03:53.914178,walking
-2838,172,-85,3240,-654,-5603,2025-01-30 10:03:53.941240,walking
-2376,-165,-136,3381,-983,-3622,2025-01-30 10:03:53.957182,walking
-2300,-386,-240,3662,-444,-1565,2025-01-30 10:03:53.966804,walking
-2584,-373,-203,4268,1041,-14,2025-01-30 10:03:53.992274,walking
-3068,-113,76,4524,2251,459,2025-01-30 10:03:54.000294,walking
-3397,197,234,4154,2596,168,2025-01-30 10:03:54.024570,walking
-3527,362,317,3820,2944,-390,2025-01-30 10:03:54.043093,walking
-3704,394,397,3440,2386,-815,2025-01-30 10:03:54.048610,walking
-3731,323,269,2539,743,-594,2025-01-30 10:03:54.075698,walking
-3689,281,162,1589,405,-85,2025-01-30 10:03:54.088568,walking
-3798,260,-31,340,-22,496,2025-01-30 10:03:54.098263,walking
-3911,231,-153,107,-1057,811,2025-01-30 10:03:54.124430,walking
-4011,154,-40,505,-1845,868,2025-01-30 10:03:54.140109,walking
-4089,25,86,901,-2829,599,2025-01-30 10:03:54.148574,walking
-3878,-180,398,723,-3102,325,2025-01-30 10:03:54.164267,walking
-3625,-199,773,-147,-2465,445,2025-01-30 10:03:54.202854,walking
-3564,-10,1008,-1445,-2175,852,2025-01-30 10:03:54.202854,walking
-3711,350,1092,-2401,-2851,1281,2025-01-30 10:03:54.212518,walking
-3946,786,958,-2742,-3764,1588,2025-01-30 10:03:54.239090,walking
-4191,656,569,-2135,-3686,1244,2025-01-30 10:03:54.255550,walking
-4254,178,458,-1192,-2671,460,2025-01-30 10:03:54.271543,
-4238,-192,718,-391,-1222,167,2025-01-30 10:03:54.282924,walking
-4286,-333,1318,-151,-61,-89,2025-01-30 10:03:54.303657,walking
-4157,-88,1811,-705,1486,-685,2025-01-30 10:03:54.320795,walking
-3930,296,2054,-1712,2769,-928,2025-01-30 10:03:54.337874,walking
-3831,747,2058,-3440,3143,-447,2025-01-30 10:03:54.356901,walking
-3868,1016,1564,-5242,2915,525,2025-01-30 10:03:54.370115,walking
-4247,963,655,-5841,1838,1035,2025-01-30 10:03:54.387847,walking
-4555,589,-56,-4812,759,483,2025-01-30 10:03:54.405539,walking
-4720,14,-97,-2895,389,-1417,2025-01-30 10:03:54.414345,walking
-4709,-497,-79,-2466,349,-3557,2025-01-30 10:03:54.514635,walking
-4448,-608,-406,-2750,246,-4790,2025-01-30 10:03:54.514635,walking
-3933,-342,-891,-2896,-300,-5626,2025-01-30 10:03:54.517491,walking
-3266,89,-1015,-2953,16,-6368,2025-01-30 10:03:54.517491,walking
-2522,466,-817,-2521,1665,-6256,2025-01-30 10:03:54.517491,walking
-1968,738,-271,-1830,3969,-4551,2025-01-30 10:03:54.517491,walking
-2121,684,117,-1525,3942,-331,2025-01-30 10:03:54.533200,walking
-3000,226,-123,-763,1230,3531,2025-01-30 10:03:54.545670,walking
-4130,-157,-219,135,1040,5268,2025-01-30 10:03:54.562190,walking
-5492,-377,-376,48,2170,4123,2025-01-30 10:03:54.587137,walking
-6211,-378,-714,-129,1232,1745,2025-01-30 10:03:54.599024,walking
-5970,-163,-798,365,-1359,-220,2025-01-30 10:03:54.639994,walking
-4866,257,-509,113,-3211,-21,2025-01-30 10:03:54.639994,walking
-3943,397,-485,559,-2877,670,2025-01-30 10:03:54.652810,walking
-3065,667,-250,1173,-1876,1149,2025-01-30 10:03:54.665899,walking
-2434,749,-46,1165,-1145,1242,2025-01-30 10:03:54.685261,walking
-2131,678,92,1127,442,1250,2025-01-30 10:03:54.703025,walking
-2326,600,-87,608,1014,1528,2025-01-30 10:03:54.711490,walking
-2788,464,-147,583,1709,2187,2025-01-30 10:03:54.727952,walking
-3415,555,268,671,2887,2502,2025-01-30 10:03:54.750529,walking
-3955,667,537,173,3058,2061,2025-01-30 10:03:54.768748,walking
-4209,704,443,-550,2641,967,2025-01-30 10:03:54.805973,walking
-4129,674,335,-1304,1552,-209,2025-01-30 10:03:54.811920,walking
-3753,583,185,-1705,585,-951,2025-01-30 10:03:54.814189,walking
-3280,459,91,-1637,418,-1229,2025-01-30 10:03:54.828382,walking
-2991,320,27,-1250,1121,-816,2025-01-30 10:03:54.848814,walking
-3163,215,66,-686,1592,-234,2025-01-30 10:03:54.865880,walking
-3498,292,231,-428,926,170,2025-01-30 10:03:54.884586,walking
-3829,341,278,-540,-339,193,2025-01-30 10:03:54.911761,walking
-4099,412,234,-484,-1049,-120,2025-01-30 10:03:54.920340,walking
-4413,469,249,-78,-1536,-473,2025-01-30 10:03:54.929410,walking
-4672,433,369,429,-1860,-717,2025-01-30 10:03:54.951852,walking
-4837,445,477,689,-1845,-1024,2025-01-30 10:03:54.961481,walking
-4813,629,763,406,-1923,-1332,2025-01-30 10:03:54.981293,walking
-4525,676,891,-46,-2098,-1172,2025-01-30 10:03:54.998370,walking
-4222,463,930,220,-2074,-891,2025-01-30 10:03:55.014085,walking
-3840,81,1103,936,-1604,-902,2025-01-30 10:03:55.031980,walking
-3491,-431,1404,1766,-816,-945,2025-01-30 10:03:55.044045,walking
-3270,-732,1570,2176,-944,-784,2025-01-30 10:03:55.065840,walking
-3183,-728,1508,2399,-1592,-447,2025-01-30 10:03:55.107631,walking
-3325,-226,1344,2410,-1881,328,2025-01-30 10:03:55.124352,walking
-3764,437,1050,1496,-1760,1317,2025-01-30 10:03:55.128213,walking
-4192,1187,281,-12,-619,1770,2025-01-30 10:03:55.128213,walking
-4553,1616,-354,-1224,469,1426,2025-01-30 10:03:55.144810,walking
-4712,1764,-535,-2153,-29,1285,2025-01-30 10:03:55.161804,walking
-4428,1421,-680,-3349,-888,2351,2025-01-30 10:03:55.174946,walking
-4204,565,-1028,-3459,-959,3523,2025-01-30 10:03:55.194749,walking
-4041,-184,-1195,-802,-1915,3679,2025-01-30 10:03:55.214739,walking
-3568,-503,-1162,2411,-1277,2556,2025-01-30 10:03:55.223906,walking
-3235,-390,-516,5337,-74,46,2025-01-30 10:03:55.241803,walking
-3196,166,494,5715,-1475,-1375,2025-01-30 10:03:55.258292,walking
-3367,838,959,2893,-2553,-740,2025-01-30 10:03:55.273363,walking
-3724,1143,547,1121,458,436,2025-01-30 10:03:55.292774,walking
-4652,1192,67,1059,2804,1331,2025-01-30 10:03:55.311960,walking
-5160,877,-587,1777,994,823,2025-01-30 10:03:55.316522,walking
-4830,514,-690,2575,421,-1519,2025-01-30 10:03:55.344946,walking
-4094,374,-78,3332,986,-3183,2025-01-30 10:03:55.361393,walking
-3222,305,464,2510,1994,-4242,2025-01-30 10:03:55.414488,walking
-2639,168,372,1376,3494,-4858,2025-01-30 10:03:55.428814,walking
-2369,58,117,634,4010,-4653,2025-01-30 10:03:55.428814,walking
-2167,-41,-240,148,2792,-3216,2025-01-30 10:03:55.428814,walking
-2183,-111,-550,1013,1436,-380,2025-01-30 10:03:55.435824,walking
-2782,-21,-309,2393,34,2030,2025-01-30 10:03:55.454605,walking
-3532,64,26,2817,-1498,3061,2025-01-30 10:03:55.462682,walking
-4123,59,241,2249,-1739,2577,2025-01-30 10:03:55.491886,walking
-4489,164,384,1159,-1892,1060,2025-01-30 10:03:55.513947,walking
-4349,298,322,263,-2695,-30,2025-01-30 10:03:55.525653,walking
-3962,435,325,-255,-2804,-268,2025-01-30 10:03:55.541178,walking
-3662,595,408,-742,-2848,276,2025-01-30 10:03:55.558729,walking
-3768,607,513,-1254,-4031,925,2025-01-30 10:03:55.574898,walking
-3922,568,794,-1700,-5841,1209,2025-01-30 10:03:55.589117,walking
-3766,612,1099,-2661,-5820,1062,2025-01-30 10:03:55.605160,walking
-3511,651,1022,-3941,-3758,830,2025-01-30 10:03:55.630249,walking
-3403,591,759,-4112,-1870,701,2025-01-30 10:03:55.639184,walking
-3525,314,569,-2989,-1610,798,2025-01-30 10:03:55.663293,walking
-3801,-131,326,-1858,-633,559,2025-01-30 10:03:55.704295,walking
-4210,-480,505,42,502,226,2025-01-30 10:03:55.704295,walking
-4510,-425,1160,1239,144,137,2025-01-30 10:03:55.712384,walking
-4569,-81,1843,1108,492,135,2025-01-30 10:03:55.720603,walking
-4319,573,1814,-601,1685,-64,2025-01-30 10:03:55.740567,walking
-3899,881,1530,-1835,2269,-204,2025-01-30 10:03:55.755684,walking
-3447,1162,1508,-2296,1715,-31,2025-01-30 10:03:55.771610,walking
-3189,1191,1737,-2691,2844,384,2025-01-30 10:03:55.788666,walking
-3624,789,1586,-3257,5191,721,2025-01-30 10:03:55.803206,walking
-4419,118,1106,-2758,5031,263,2025-01-30 10:03:55.813349,walking
-4888,-396,1092,-1622,2319,-520,2025-01-30 10:03:55.839418,walking
-5194,-663,759,-1581,-494,-1469,2025-01-30 10:03:55.845826,walking
-5125,-467,-338,-2469,-926,-2362,2025-01-30 10:03:55.862829,walking
-4619,-133,-1383,-2647,-1207,-2378,2025-01-30 10:03:55.879798,walking
-3781,341,-1885,-1244,878,-2223,2025-01-30 10:03:55.895886,walking
-3115,853,-1385,1623,3483,-2198,2025-01-30 10:03:55.929583,
-2726,1064,-481,3374,4012,-1926,2025-01-30 10:03:55.939207,walking
-2342,1228,925,2570,2559,-550,2025-01-30 10:03:55.955323,walking
-2452,1113,1521,-253,1398,729,2025-01-30 10:03:55.973003,walking
-2833,793,1042,-2700,2540,827,2025-01-30 10:03:56.011755,walking
-3693,440,319,-4159,3101,442,2025-01-30 10:03:56.033968,walking
-4574,138,-389,-4320,-203,1013,2025-01-30 10:03:56.038304,walking
-5072,49,-929,-2947,-2945,3040,2025-01-30 10:03:56.039602,walking
-5421,429,-686,-651,-3232,4672,2025-01-30 10:03:56.047246,walking
-5156,1040,153,-241,-2740,3169,2025-01-30 10:03:56.063156,walking
-4290,1244,398,-2157,-1073,431,2025-01-30 10:03:56.086127,walking
-3456,1151,178,-4049,526,-1749,2025-01-30 10:03:56.096984,walking
-2700,1028,-74,-4322,497,-2206,2025-01-30 10:03:56.112855,walking
-2186,818,-369,-3528,1101,-1604,2025-01-30 10:03:56.129347,walking
-1973,515,-580,-1720,2910,-319,2025-01-30 10:03:56.146133,walking
-2265,329,-589,-299,2968,1271,2025-01-30 10:03:56.174309,walking
-2857,283,-485,516,1342,2673,2025-01-30 10:03:56.179594,walking
-3633,386,-305,941,-732,3458,2025-01-30 10:03:56.196229,walking
-4510,692,164,667,-2477,2885,2025-01-30 10:03:56.212534,walking
-4945,984,476,-387,-2231,1003,2025-01-30 10:03:56.230358,walking
-4807,1106,585,-1600,-1466,-1075,2025-01-30 10:03:56.246667,walking
-4155,1024,500,-2623,-1205,-2780,2025-01-30 10:03:56.265669,walking
-3567,861,386,-2809,-1191,-3383,2025-01-30 10:03:56.305262,walking
-3095,665,371,-2298,-1300,-3188,2025-01-30 10:03:56.314869,walking
-2810,405,380,-1436,-1376,-2344,2025-01-30 10:03:56.314869,walking
-2772,152,413,-585,-1681,-1047,2025-01-30 10:03:56.332938,walking
-3015,-38,372,20,-2003,297,2025-01-30 10:03:56.345949,walking
-3595,10,377,1235,-1638,1176,2025-01-30 10:03:56.365919,walking
-4103,329,644,2055,-948,991,2025-01-30 10:03:56.380542,walking
-4421,763,1188,1829,-365,244,2025-01-30 10:03:56.391444,walking
-4502,1072,1647,840,658,-421,2025-01-30 10:03:56.413888,walking
-4623,1193,1632,-541,552,-829,2025-01-30 10:03:56.430086,walking
-4372,855,740,-1194,-295,-1084,2025-01-30 10:03:56.449890,walking
-3873,280,220,702,67,-997,2025-01-30 10:03:56.463272,walking
-3630,-123,165,3135,596,-731,2025-01-30 10:03:56.483083,walking
-3582,-206,341,3701,-457,-549,2025-01-30 10:03:56.496218,walking
-3307,94,387,3290,-230,57,2025-01-30 10:03:56.512794,walking
-3345,664,566,2850,1834,1132,2025-01-30 10:03:56.529502,walking
-3592,1357,801,2811,3447,1913,2025-01-30 10:03:56.545615,walking
-3960,1814,688,1482,5364,1437,2025-01-30 10:03:56.561679,walking
-4101,1710,18,-435,4833,-13,2025-01-30 10:03:56.606989,walking
-3944,1004,-891,-320,2550,-586,2025-01-30 10:03:56.614074,walking
-3709,387,-1218,1666,-750,136,2025-01-30 10:03:56.614074,walking
-3625,-242,-945,4806,-4726,1882,2025-01-30 10:03:56.628390,walking
-3798,-432,-241,6283,-6191,3031,2025-01-30 10:03:56.644240,walking
-4244,-269,392,5018,-5541,3291,2025-01-30 10:03:56.660699,walking
-4674,387,363,2218,-4877,2971,2025-01-30 10:03:56.676807,walking
-4604,1019,-194,731,-3282,2496,2025-01-30 10:03:56.694921,walking
-4513,1536,-501,1920,-621,1470,2025-01-30 10:03:56.709890,walking
-4329,1796,-264,3807,2346,-332,2025-01-30 10:03:56.728206,walking
-4090,1601,434,3713,3556,-2436,2025-01-30 10:03:56.753173,walking
-3831,1154,764,2077,3237,-3741,2025-01-30 10:03:56.762953,walking
-3520,706,845,627,3975,-4007,2025-01-30 10:03:56.791456,walking
-3355,450,631,-393,5606,-3768,2025-01-30 10:03:56.794985,walking
-3458,208,227,-1010,6002,-3680,2025-01-30 10:03:56.811374,walking
-3455,-112,-309,-513,3856,-3835,2025-01-30 10:03:56.828459,walking
-3247,-233,-453,552,861,-3599,2025-01-30 10:03:56.853787,walking
-2946,-278,-449,1199,-1976,-2722,2025-01-30 10:03:56.860301,walking
-2646,-184,-325,1893,-3239,-1093,2025-01-30 10:03:56.908442,walking
-2647,30,10,1845,-3177,621,2025-01-30 10:03:56.908442,walking
-2907,172,5,1005,-2824,1919,2025-01-30 10:03:56.908442,walking
-3251,410,-70,599,-2235,2882,2025-01-30 10:03:56.916379,walking
-3807,679,-17,-330,-2728,3461,2025-01-30 10:03:56.940833,walking
-4398,759,99,-1559,-5074,3885,2025-01-30 10:03:56.957548,walking
-4854,569,137,-1828,-6677,3845,2025-01-30 10:03:56.973565,walking
-5001,349,276,-1029,-6062,2482,2025-01-30 10:03:56.983110,walking
-4524,264,765,-389,-5422,514,2025-01-30 10:03:57.011841,walking
-3713,263,1214,-385,-4510,-309,2025-01-30 10:03:57.019899,walking
-2972,268,1377,-889,-2296,-620,2025-01-30 10:03:57.044901,walking
-2686,175,1071,-1908,170,-1003,2025-01-30 10:03:57.058656,walking
-2585,-13,149,-2290,2220,-922,2025-01-30 10:03:57.065113,walking
-2799,-83,-388,-191,3293,686,2025-01-30 10:03:57.082166,walking
-3419,182,-107,3191,1924,3294,2025-01-30 10:03:57.110987,walking
-4110,645,776,4802,-447,5382,2025-01-30 10:03:57.125141,walking
-4838,1401,2246,3568,-674,5279,2025-01-30 10:03:57.148845,walking
-5001,2028,2964,-464,985,2901,2025-01-30 10:03:57.165731,walking
-4824,2177,2612,-4787,2203,-185,2025-01-30 10:03:57.214575,walking
-4302,1741,1597,-6766,1806,-2170,2025-01-30 10:03:57.214575,walking
-3860,1161,717,-6887,908,-2709,2025-01-30 10:03:57.214575,walking
-3484,442,299,-5962,-209,-2219,2025-01-30 10:03:57.214575,walking
-3050,-194,258,-4856,-121,-910,2025-01-30 10:03:57.248714,walking
-3008,-675,276,-4243,990,305,2025-01-30 10:03:57.253223,walking
-3292,-1113,164,-2958,1182,944,2025-01-30 10:03:57.270942,walking
-3572,-1106,345,534,1227,1023,2025-01-30 10:03:57.298440,walking
-3818,-612,945,2731,1968,980,2025-01-30 10:03:57.303627,walking
-4073,-74,1125,2261,2231,831,2025-01-30 10:03:57.320182,walking
-4376,457,526,1385,1838,719,2025-01-30 10:03:57.333303,walking
-4433,941,-215,1788,3033,136,2025-01-30 10:03:57.352331,walking
-3601,907,-160,1459,4746,1575,2025-01-30 10:03:57.687648,walking
-3979,964,-138,2639,5190,1039,2025-01-30 10:03:57.703197,walking
-4317,842,50,3170,3581,-25,2025-01-30 10:03:57.730395,walking
-4264,585,34,2655,793,-1487,2025-01-30 10:03:57.745130,walking
-3863,430,-4,1877,-1337,-2124,2025-01-30 10:03:57.766788,walking
-3466,434,258,1323,-2228,-1708,2025-01-30 10:03:57.813170,walking
-3455,652,610,890,-2583,-950,2025-01-30 10:03:57.816497,walking
-3648,800,831,829,-3140,-625,2025-01-30 10:03:57.816497,walking
-3845,761,769,1164,-3822,-634,2025-01-30 10:03:57.833114,walking
-3931,675,680,64,-4399,-607,2025-01-30 10:03:57.851142,walking
-3922,687,386,-1561,-3403,-364,2025-01-30 10:03:57.862067,walking
-4111,832,23,-1981,-2320,105,2025-01-30 10:03:57.877822,walking
-4445,940,-103,-68,-3358,37,2025-01-30 10:03:57.900077,
-4542,699,484,2150,-2774,-1791,2025-01-30 10:03:57.916194,walking
-4369,303,1609,3087,-623,-4230,2025-01-30 10:03:57.934663,walking
-3970,-139,2233,2169,1677,-5281,2025-01-30 10:03:57.948121,walking
-3530,-562,1854,1018,4254,-4468,2025-01-30 10:03:57.966775,walking
-3399,-773,1006,1248,5563,-2816,2025-01-30 10:03:57.979460,walking
-3359,-752,433,3561,5002,-1147,2025-01-30 10:03:57.995687,walking
-3418,-475,817,6651,4622,209,2025-01-30 10:03:58.011863,walking
-3811,-380,796,8415,5492,492,2025-01-30 10:03:58.033558,walking
-4402,-583,-96,8510,4985,-1146,2025-01-30 10:03:58.045077,walking
-4523,-693,-1110,8900,1722,-3488,2025-01-30 10:03:58.067584,walking
-3843,-289,-1175,9672,-728,-4475,2025-01-30 10:03:58.102462,walking
-3051,749,-221,9333,-258,-3222,2025-01-30 10:03:58.116503,walking
-2843,2015,618,7369,744,-741,2025-01-30 10:03:58.116503,walking
-2907,2879,584,4480,1821,2313,2025-01-30 10:03:58.128314,walking
-3671,3018,-293,1977,2095,5177,2025-01-30 10:03:58.144208,walking
-4878,2170,-1576,2947,-1649,4168,2025-01-30 10:03:58.162924,walking
-5154,919,-1647,7314,-3879,-1042,2025-01-30 10:03:58.179664,walking
-4707,-148,-294,10070,-2678,-5650,2025-01-30 10:03:58.196292,walking
-3974,-1005,775,7752,-1307,-7633,2025-01-30 10:03:58.213813,walking
-3150,-1492,440,4702,676,-6454,2025-01-30 10:03:58.232123,walking
-2628,-968,-79,3812,1773,-1860,2025-01-30 10:03:58.246367,walking
-3000,225,-267,3941,157,2552,2025-01-30 10:03:58.256056,walking
-3514,1259,-144,4848,460,4397,2025-01-30 10:03:58.280044,walking
-4241,2092,382,5379,2537,3784,2025-01-30 10:03:58.296413,walking
-5099,2247,321,5005,3905,715,2025-01-30 10:03:58.313152,walking
-5404,1760,325,3533,2940,-3201,2025-01-30 10:03:58.332621,walking
-5113,907,199,2286,-107,-6483,2025-01-30 10:03:58.344951,walking
-4052,40,119,1567,-2172,-7605,2025-01-30 10:03:58.363079,walking
-3055,-573,384,1327,-2054,-6321,2025-01-30 10:03:58.379455,walking
-2575,-809,491,1051,-1933,-4147,2025-01-30 10:03:58.411609,walking
-2270,-686,553,355,-2027,-1814,2025-01-30 10:03:58.412713,walking
-2323,-350,396,-175,-1069,207,2025-01-30 10:03:58.420689,walking
-2799,-43,95,-353,974,1368,2025-01-30 10:03:58.429448,walking
-3598,171,-194,-545,1677,1610,2025-01-30 10:03:58.456338,walking
-4250,204,-550,-639,1378,1438,2025-01-30 10:03:58.471247,walking
-4950,171,-577,-212,407,853,2025-01-30 10:03:58.484071,walking
-5335,193,-155,276,-1113,-230,2025-01-30 10:03:58.496519,walking
-5186,212,477,378,-2893,-1529,2025-01-30 10:03:58.534680,walking
-4598,110,673,210,-4746,-2419,2025-01-30 10:03:58.551760,walking
-3741,-97,466,380,-6292,-2604,2025-01-30 10:03:58.551760,walking
-3111,-295,210,1135,-5733,-2147,2025-01-30 10:03:58.562726,walking
-2683,-390,316,1800,-3796,-1145,2025-01-30 10:03:58.581153,walking
-2561,-302,481,1926,-2445,323,2025-01-30 10:03:58.596401,walking
-2676,-37,556,1617,-1753,1886,2025-01-30 10:03:58.618581,walking
-2956,312,720,809,-501,2768,2025-01-30 10:03:58.629803,walking
-3392,708,713,-279,1350,3191,2025-01-30 10:03:58.647563,walking
-4004,1062,39,-1008,3793,3025,2025-01-30 10:03:58.663545,walking
-4617,1170,-874,-656,5370,2186,2025-01-30 10:03:58.686410,walking
-4925,1059,-1587,1205,5335,549,2025-01-30 10:03:58.729805,walking
-4693,1077,-1316,3022,4161,-898,2025-01-30 10:03:58.729805,walking
-4195,958,-428,3017,1589,-1470,2025-01-30 10:03:58.746262,walking
-3630,790,396,1802,-651,-1109,2025-01-30 10:03:58.746262,walking
-3254,528,717,228,-1718,-463,2025-01-30 10:03:58.761625,walking
-3230,266,387,-568,-1356,-102,2025-01-30 10:03:58.775848,walking
-3355,211,-66,-148,610,83,2025-01-30 10:03:58.791905,walking
-3620,287,-195,774,2750,636,2025-01-30 10:03:58.795994,walking
-4092,369,-463,1774,2335,1009,2025-01-30 10:03:58.826401,walking
-4329,478,-243,2859,8,872,2025-01-30 10:03:58.842079,walking
-4311,522,47,4071,-1227,458,2025-01-30 10:03:58.858058,walking
-4236,532,338,5160,-1143,-167,2025-01-30 10:03:58.873776,walking
-4110,637,526,4555,-1257,-242,2025-01-30 10:03:58.887889,walking
-3923,687,27,3485,-1597,573,2025-01-30 10:03:58.911640,walking
-3751,810,-378,3919,-622,1277,2025-01-30 10:03:58.921798,walking
-3728,938,-510,4548,726,1484,2025-01-30 10:03:58.929182,walking
-3644,1000,-365,5044,618,1314,2025-01-30 10:03:58.954617,walking
-3409,1111,61,5366,293,1052,2025-01-30 10:03:58.962782,walking
-3249,1139,418,5104,347,923,2025-01-30 10:03:59.013075,walking
-3222,1043,536,4647,481,825,2025-01-30 10:03:59.013075,walking
-3188,811,279,4874,1332,694,2025-01-30 10:03:59.013075,walking
-3314,562,40,5802,3055,687,2025-01-30 10:03:59.030000,walking
-3591,485,-23,6448,4211,951,2025-01-30 10:03:59.056827,walking
-3861,581,-107,6337,3468,1504,2025-01-30 10:03:59.074256,walking
-4081,783,-376,6353,2043,2024,2025-01-30 10:03:59.088822,walking
-4139,923,-510,7109,1809,1917,2025-01-30 10:03:59.104334,walking
-4164,1063,-298,8229,2171,1063,2025-01-30 10:03:59.129057,walking
-3878,1069,130,8698,2034,108,2025-01-30 10:03:59.137063,walking
-3372,1045,489,8008,1754,47,2025-01-30 10:03:59.155284,walking
-3149,868,-26,7372,1867,976,2025-01-30 10:03:59.163559,walking
-3074,759,-638,8232,3508,2226,2025-01-30 10:03:59.188137,walking
-3307,905,-805,9265,5354,2850,2025-01-30 10:03:59.203201,walking
-3733,1120,-644,9795,5404,2498,2025-01-30 10:03:59.215983,walking
-3860,1382,-308,9888,3778,1488,2025-01-30 10:03:59.236839,walking
-3703,1548,-117,9322,2618,885,2025-01-30 10:03:59.244930,walking
-3389,1561,-214,8633,2170,887,2025-01-30 10:03:59.269189,walking
-3122,1463,-383,8736,2998,1242,2025-01-30 10:03:59.302670,walking
-3042,1282,-576,9475,4541,1308,2025-01-30 10:03:59.314651,walking
-3035,1127,-632,10467,6133,975,2025-01-30 10:03:59.315937,walking
-2934,1053,-510,10868,7149,627,2025-01-30 10:03:59.327559,walking
-2920,1108,-436,9950,7158,873,2025-01-30 10:03:59.344217,walking
-3072,1150,-747,9100,6611,1597,2025-01-30 10:03:59.360068,walking
-3332,1182,-1064,9468,6760,2384,2025-01-30 10:03:59.377692,walking
-3577,1213,-1256,10840,7441,2681,2025-01-30 10:03:59.393595,walking
-3382,1122,-1151,11886,8097,2022,2025-01-30 10:03:59.411620,sitting
-2790,1115,-915,11704,8870,1390,2025-01-30 10:03:59.426825,sitting
-2605,1244,-978,10198,9310,2044,2025-01-30 10:03:59.442375,sitting
-2915,1323,-1344,9059,8924,3349,2025-01-30 10:03:59.461968,sitting
-3316,1479,-1543,8730,8541,3959,2025-01-30 10:03:59.475112,sitting
-3402,1626,-1715,8215,8840,3519,2025-01-30 10:03:59.500389,sitting
-3240,1418,-1981,9012,9784,2938,2025-01-30 10:03:59.511862,sitting
-3180,996,-2109,11106,10557,2387,2025-01-30 10:03:59.531189,
-3335,431,-1909,13102,11226,1802,2025-01-30 10:03:59.544428,sitting
-3646,-134,-1668,14282,11375,1694,2025-01-30 10:03:59.561095,sitting
-3902,-365,-1685,13036,10228,1501,2025-01-30 10:03:59.611519,sitting
-3805,-5,-2053,10361,6742,1284,2025-01-30 10:03:59.611519,sitting
-3386,657,-2279,7833,3504,1592,2025-01-30 10:03:59.614515,sitting
-3063,1207,-2321,6299,2487,2260,2025-01-30 10:03:59.614515,sitting
-3024,1381,-2277,6450,3589,2557,2025-01-30 10:03:59.639341,sitting
-3364,919,-2207,7453,5260,2136,2025-01-30 10:03:59.657345,sitting
-3814,212,-2380,8553,5585,1130,2025-01-30 10:03:59.667266,sitting
-3951,-175,-2281,8305,4501,7,2025-01-30 10:03:59.692702,sitting
-3609,-88,-2299,6615,3074,-693,2025-01-30 10:03:59.696718,sitting
-2972,268,-2525,5712,2780,-305,2025-01-30 10:03:59.723752,sitting
-2621,440,-2757,6869,5213,814,2025-01-30 10:03:59.737252,sitting
-2681,492,-2767,7780,9375,2228,2025-01-30 10:03:59.753319,sitting
-3086,610,-2639,5850,12037,3239,2025-01-30 10:03:59.773496,sitting
-3546,741,-3270,3145,10978,3243,2025-01-30 10:03:59.791176,sitting
-3599,818,-3710,3363,8478,2526,2025-01-30 10:03:59.801616,sitting
-3344,781,-3567,4978,6413,1675,2025-01-30 10:03:59.817694,sitting
-2949,523,-2966,5714,6572,1844,2025-01-30 10:03:59.841981,sitting
-2916,290,-2727,4988,6974,2185,2025-01-30 10:03:59.860275,sitting
-3053,201,-3020,3639,5873,2271,2025-01-30 10:03:59.914467,sitting
-3142,370,-3470,3201,4644,1735,2025-01-30 10:03:59.914467,sitting
-3212,565,-3514,3087,3647,1446,2025-01-30 10:03:59.914467,sitting
-3552,462,-3541,2991,624,1181,2025-01-30 10:03:59.914467,sitting
-3543,154,-3535,3900,-4197,-151,2025-01-30 10:03:59.934453,sitting
-2690,-152,-2846,5080,-4730,-1169,2025-01-30 10:03:59.957069,sitting
-2337,-177,-2554,3988,-2719,-294,2025-01-30 10:03:59.968777,sitting
-2375,-64,-2931,2329,-1997,1266,2025-01-30 10:03:59.984679,sitting
-2590,112,-3438,1901,-2569,2038,2025-01-30 10:04:00.031074,sitting
-2945,401,-3384,2691,-3386,1659,2025-01-30 10:04:00.040585,sitting
-3084,477,-3143,3639,-4910,933,2025-01-30 10:04:00.040585,sitting
-3037,316,-2793,4364,-6625,389,2025-01-30 10:04:00.048670,sitting
-2908,151,-2418,4306,-8265,603,2025-01-30 10:04:00.073194,sitting
-2709,61,-2365,2805,-9096,1585,2025-01-30 10:04:00.088985,sitting
-2670,189,-2565,1231,-8685,1897,2025-01-30 10:04:00.104751,sitting
-2697,428,-2829,439,-8017,1534,2025-01-30 10:04:00.129597,sitting
-2592,428,-3002,944,-7225,1471,2025-01-30 10:04:00.129597,sitting
-2726,188,-2778,1739,-5667,1778,2025-01-30 10:04:00.129597,sitting
-3119,-65,-2590,1525,-5660,2123,2025-01-30 10:04:00.164710,sitting
-3290,-168,-2596,1647,-6938,1701,2025-01-30 10:04:00.206693,sitting
-3113,23,-2507,2482,-6532,1302,2025-01-30 10:04:00.211606,sitting
-2969,348,-2104,2427,-5559,1416,2025-01-30 10:04:00.211606,sitting
-3176,551,-2161,1380,-5754,1930,2025-01-30 10:04:00.214640,sitting
-3689,684,-2580,1538,-7116,2115,2025-01-30 10:04:00.233029,sitting
-4172,695,-2752,3490,-9172,1948,2025-01-30 10:04:00.248377,sitting
-4410,694,-2326,4420,-12162,2228,2025-01-30 10:04:00.276089,sitting
-4283,605,-1921,3500,-15040,2413,2025-01-30 10:04:00.291125,sitting
-4156,433,-1959,2792,-15577,2173,2025-01-30 10:04:00.316825,sitting
-4022,170,-2064,3219,-14550,1165,2025-01-30 10:04:00.324927,sitting
-3717,-50,-2002,4976,-11979,213,2025-01-30 10:04:00.362508,sitting
-3675,-134,-1776,5803,-10887,805,2025-01-30 10:04:00.365026,sitting
-3779,-162,-1533,5746,-11222,1880,2025-01-30 10:04:00.367149,sitting
-3881,-102,-1241,5115,-11176,2158,2025-01-30 10:04:00.391398,sitting
-3888,115,-1194,4412,-11532,1653,2025-01-30 10:04:00.400445,sitting
-3676,353,-1189,4536,-10741,785,2025-01-30 10:04:00.416189,sitting
-3454,502,-895,4723,-9696,320,2025-01-30 10:04:00.445276,sitting
-3500,431,-654,4558,-9454,541,2025-01-30 10:04:00.458158,sitting
-3905,248,-845,4027,-11544,614,2025-01-30 10:04:00.507269,sitting
-3990,192,-979,3748,-13699,-78,2025-01-30 10:04:00.524969,sitting
-3755,227,-872,3973,-13640,-1177,2025-01-30 10:04:00.524969,sitting
-3444,278,-622,4056,-12496,-1820,2025-01-30 10:04:00.524969,sitting
-3288,358,-319,4029,-10592,-1981,2025-01-30 10:04:00.545419,sitting
-3791,278,239,3553,-9865,-429,2025-01-30 10:04:00.549744,sitting
-5777,-248,848,1878,-10983,2300,2025-01-30 10:04:00.566182,sitting
-8626,-518,763,-1948,-14445,2214,2025-01-30 10:04:00.577593,sitting
-9799,-254,-720,-5472,-16699,-2190,2025-01-30 10:04:00.598808,sitting
-7335,340,-2012,-3103,-14734,-8921,2025-01-30 10:04:00.620933,sitting
-3829,465,-957,3215,-7042,-13311,2025-01-30 10:04:00.628957,sitting
-207,-218,1190,11197,9024,-14278,2025-01-30 10:04:00.653014,sitting
1493,-704,3949,10247,18474,-8755,2025-01-30 10:04:00.666851,sitting
545,-1166,3337,-1096,4980,1276,2025-01-30 10:04:00.678655,sitting
-1275,-867,468,-7782,-7754,12237,2025-01-30 10:04:00.713037,sitting
-3407,205,-600,-6984,-9660,16182,2025-01-30 10:04:00.713037,sitting
-6045,1517,-910,-3717,-7130,14484,2025-01-30 10:04:00.730011,sitting
-7659,2292,-561,-549,-4899,6570,2025-01-30 10:04:00.746263,sitting
-7426,2062,429,248,-4478,-2926,2025-01-30 10:04:00.763565,sitting
-5507,782,665,-1175,-4377,-8534,2025-01-30 10:04:00.796332,sitting
-3773,-360,525,-2885,-5821,-8269,2025-01-30 10:04:00.816029,sitting
-2330,-1153,146,-4413,-7758,-4315,2025-01-30 10:04:00.816029,sitting
-1598,-1412,-72,-3790,-7019,376,2025-01-30 10:04:00.829667,sitting
-2000,-805,589,-2035,-3861,2852,2025-01-30 10:04:00.849174,sitting
-2931,-196,1073,-1323,-2696,2602,2025-01-30 10:04:00.861841,sitting
-3721,303,1151,-1770,-2502,1955,2025-01-30 10:04:00.879182,sitting
-4348,541,681,-3213,-2063,1645,2025-01-30 10:04:00.895051,sitting
-4889,599,27,-4082,-2021,969,2025-01-30 10:04:00.911724,sitting
-4925,486,-143,-3434,-1930,-223,2025-01-30 10:04:00.920558,sitting
-4361,327,315,-2584,-1627,-1393,2025-01-30 10:04:00.941932,sitting
-3639,157,755,-2403,-1918,-1911,2025-01-30 10:04:00.958060,sitting
-2908,35,937,-2376,-2037,-1121,2025-01-30 10:04:00.979871,sitting
-2758,71,805,-2547,-1716,108,2025-01-30 10:04:00.989880,sitting
-3140,49,637,-2490,-1393,1332,2025-01-30 10:04:01.013445,sitting
-3688,-57,560,-1953,-997,1837,2025-01-30 10:04:01.029765,sitting
-4221,-95,569,-1714,-1744,1575,2025-01-30 10:04:01.042015,sitting
-4192,-135,704,-1198,-1288,735,2025-01-30 10:04:01.059215,sitting
-4043,24,1014,-877,-717,-85,2025-01-30 10:04:01.112194,sitting
-3827,94,998,-1341,-2111,-208,2025-01-30 10:04:01.113393,sitting
-3398,83,772,-1556,-2338,303,2025-01-30 10:04:01.113393,sitting
-3212,152,871,-1264,-723,940,2025-01-30 10:04:01.122906,sitting
-3427,200,1057,-1625,-231,1283,2025-01-30 10:04:01.138780,sitting
-3537,154,1047,-2001,-8,1011,2025-01-30 10:04:01.155990,
-3718,68,946,-1448,601,461,2025-01-30 10:04:01.171377,sitting
-3757,34,941,-1039,603,223,2025-01-30 10:04:01.193390,sitting
-3704,-33,916,-992,322,389,2025-01-30 10:04:01.208769,sitting
-3640,-19,1038,-1215,215,689,2025-01-30 10:04:01.223452,sitting
-3583,-44,1133,-1446,576,735,2025-01-30 10:04:01.241437,sitting
-3583,38,1127,-1543,827,560,2025-01-30 10:04:01.258629,sitting
-3581,78,1006,-1480,1060,474,2025-01-30 10:04:01.272698,sitting
-3668,92,722,-1300,1363,541,2025-01-30 10:04:01.312938,sitting
-3768,151,603,-1022,1355,534,2025-01-30 10:04:01.312938,sitting
-3888,151,505,-690,1094,472,2025-01-30 10:04:01.322659,sitting
-3935,208,476,-258,780,243,2025-01-30 10:04:01.329844,sitting
-3891,281,522,138,679,-55,2025-01-30 10:04:01.361962,sitting
-3819,253,637,330,432,-222,2025-01-30 10:04:01.403573,sitting
-3702,202,705,571,59,-208,2025-01-30 10:04:01.411678,sitting
-3595,139,793,793,225,-2,2025-01-30 10:04:01.413287,sitting
-3601,64,894,820,841,206,2025-01-30 10:04:01.419187,sitting
-3722,65,823,582,1738,316,2025-01-30 10:04:01.429867,sitting
-3894,30,578,419,2175,109,2025-01-30 10:04:01.446173,sitting
-3976,169,491,578,1961,-170,2025-01-30 10:04:01.470779,sitting
-3948,316,508,647,1247,-409,2025-01-30 10:04:01.491717,sitting
-3919,477,539,525,397,-713,2025-01-30 10:04:01.495981,sitting
-3788,549,545,533,-207,-786,2025-01-30 10:04:01.521972,sitting
-3731,506,559,720,-241,-570,2025-01-30 10:04:01.530722,sitting
-3681,391,601,754,105,-340,2025-01-30 10:04:01.546274,sitting
-3674,247,720,275,455,-196,2025-01-30 10:04:01.566305,sitting
-3710,112,649,-332,691,-146,2025-01-30 10:04:01.585532,sitting
-3734,28,561,-562,831,-128,2025-01-30 10:04:01.604287,sitting
-3772,35,446,-403,811,-93,2025-01-30 10:04:01.616133,sitting
-3834,31,425,-35,623,-138,2025-01-30 10:04:01.633022,sitting
-3828,49,402,301,518,-203,2025-01-30 10:04:01.650069,sitting
-3808,113,527,410,693,-293,2025-01-30 10:04:01.672410,sitting
-3815,243,630,73,769,-379,2025-01-30 10:04:01.706588,sitting
-3805,306,645,-599,653,-433,2025-01-30 10:04:01.712920,sitting
-3761,296,697,-1062,755,-486,2025-01-30 10:04:01.712920,sitting
-3774,313,704,-1308,699,-458,2025-01-30 10:04:01.731742,sitting
-3843,328,592,-1429,238,-340,2025-01-30 10:04:01.746398,sitting
-3880,316,551,-1550,-278,-128,2025-01-30 10:04:01.756434,sitting
-3846,307,462,-1770,-424,27,2025-01-30 10:04:01.779776,sitting
-3765,267,477,-1806,-224,-14,2025-01-30 10:04:01.797855,sitting
-3719,242,469,-1641,-34,-137,2025-01-30 10:04:01.813507,sitting
-3768,145,539,-1216,-408,-187,2025-01-30 10:04:01.830026,sitting
-3784,104,573,-858,-897,-128,2025-01-30 10:04:01.848042,sitting
-3777,60,598,-754,-1152,-68,2025-01-30 10:04:01.858643,sitting
-3755,45,641,-813,-861,-51,2025-01-30 10:04:01.883155,sitting
-3713,53,639,-922,-299,-111,2025-01-30 10:04:01.889269,sitting
-3646,85,598,-1006,112,-66,2025-01-30 10:04:01.913332,sitting
-3719,139,633,-1033,-38,41,2025-01-30 10:04:01.925264,sitting
-3791,179,701,-1074,-559,70,2025-01-30 10:04:01.940644,sitting
-3831,177,639,-1048,-825,65,2025-01-30 10:04:01.961934,sitting
-3802,162,618,-872,-802,76,2025-01-30 10:04:02.006721,sitting
-3761,146,675,-677,-817,172,2025-01-30 10:04:02.006721,sitting
-3690,111,676,-702,-596,202,2025-01-30 10:04:02.006721,sitting
-3679,99,622,-786,-379,175,2025-01-30 10:04:02.029536,sitting
-3688,129,633,-707,-395,133,2025-01-30 10:04:02.038726,sitting
-3695,160,701,-574,-442,152,2025-01-30 10:04:02.062420,sitting
-3770,171,728,-590,-601,270,2025-01-30 10:04:02.074259,sitting
-3886,229,690,-678,-1366,399,2025-01-30 10:04:02.094114,sitting
-3895,245,731,-642,-1906,253,2025-01-30 10:04:02.102654,sitting
-3704,186,803,-538,-1502,-9,2025-01-30 10:04:02.120011,sitting
-3577,166,811,-524,-728,-215,2025-01-30 10:04:02.139122,sitting
-3519,185,844,-443,-215,-292,2025-01-30 10:04:02.149558,sitting
-3582,185,786,-296,5,-217,2025-01-30 10:04:02.173021,sitting
-3620,251,713,-150,330,-50,2025-01-30 10:04:02.184129,sitting
-3738,311,760,-132,749,68,2025-01-30 10:04:02.212329,sitting
-3745,396,790,-245,1026,48,2025-01-30 10:04:02.232047,sitting
-3758,368,792,-425,1159,-50,2025-01-30 10:04:02.240442,sitting
-3752,249,680,-477,952,-105,2025-01-30 10:04:02.258605,sitting
-3775,166,625,-491,393,-86,2025-01-30 10:04:02.271824,sitting
-3748,128,588,-490,-142,-38,2025-01-30 10:04:02.305955,sitting
-3746,115,549,-514,-218,-31,2025-01-30 10:04:02.316998,sitting
-3816,147,546,-522,-379,-13,2025-01-30 10:04:02.330635,sitting
-3841,175,640,-425,-730,-109,2025-01-30 10:04:02.333492,sitting
-3795,181,782,-361,-841,-292,2025-01-30 10:04:02.355053,sitting
-3790,251,779,-519,-980,-324,2025-01-30 10:04:02.366690,sitting
-3765,292,790,-726,-1316,-285,2025-01-30 10:04:02.385546,sitting
-3768,301,805,-982,-1422,-254,2025-01-30 10:04:02.398286,sitting
-3669,277,761,-1332,-1393,-246,2025-01-30 10:04:02.423603,sitting
-3595,200,800,-1273,-1021,-258,2025-01-30 10:04:02.433120,sitting
-3580,148,809,-1005,-251,-198,2025-01-30 10:04:02.450092,sitting
-3641,108,818,-702,124,-113,2025-01-30 10:04:02.467494,sitting
-3694,98,785,-451,-67,-33,2025-01-30 10:04:02.482966,sitting
-3711,171,853,-392,-263,-4,2025-01-30 10:04:02.499998,sitting
-3709,196,921,-537,-265,-59,2025-01-30 10:04:02.518927,sitting
-3714,237,954,-768,-177,-94,2025-01-30 10:04:02.532431,sitting
-3693,221,885,-915,-207,-118,2025-01-30 10:04:02.548975,sitting
-3707,206,827,-931,-307,-59,2025-01-30 10:04:02.565777,sitting
-3694,169,786,-882,-306,-18,2025-01-30 10:04:02.614341,sitting
-3749,152,760,-832,-298,-73,2025-01-30 10:04:02.614341,sitting
-3718,176,779,-744,-371,-183,2025-01-30 10:04:02.614341,sitting
-3707,174,801,-735,-437,-224,2025-01-30 10:04:02.633033,sitting
-3690,184,825,-835,-432,-195,2025-01-30 10:04:02.647077,sitting
-3693,202,865,-814,-306,-133,2025-01-30 10:04:02.663185,sitting
-3681,202,887,-816,-68,-77,2025-01-30 10:04:02.681113,sitting
-3712,223,889,-828,-87,-65,2025-01-30 10:04:02.696041,sitting
-3734,220,841,-814,-261,-79,2025-01-30 10:04:02.713219,sitting
-3673,168,863,-723,-277,-160,2025-01-30 10:04:02.730299,sitting
-3643,195,893,-658,-90,-188,2025-01-30 10:04:02.737176,sitting
-3671,166,871,-567,64,-127,2025-01-30 10:04:02.762939,sitting
-3665,178,890,-466,60,-103,2025-01-30 10:04:02.782493,sitting
-3719,200,870,-379,-80,-72,2025-01-30 10:04:02.795674,
-3746,202,885,-481,-381,-103,2025-01-30 10:04:02.812389,sitting
-3732,200,875,-672,-523,-117,2025-01-30 10:04:02.832763,sitting
-3718,165,828,-778,-468,-175,2025-01-30 10:04:02.844051,sitting
-3656,181,862,-758,-350,-218,2025-01-30 10:04:02.862962,sitting
-3649,206,840,-646,-267,-186,2025-01-30 10:04:02.898144,sitting
-3621,181,912,-609,-99,-111,2025-01-30 10:04:02.913465,sitting
-3687,187,930,-623,-2,-97,2025-01-30 10:04:02.913465,sitting
-3695,198,966,-620,62,-118,2025-01-30 10:04:02.919596,sitting
-3716,201,951,-603,233,-180,2025-01-30 10:04:02.946743,sitting
-3776,170,927,-663,-163,-114,2025-01-30 10:04:02.961803,sitting
-3806,197,922,-742,-921,-122,2025-01-30 10:04:02.965881,sitting
-3741,190,870,-709,-1087,-238,2025-01-30 10:04:02.996371,sitting
-3718,176,830,-651,-1101,-306,2025-01-30 10:04:03.016647,sitting
-3733,152,853,-426,-1348,-250,2025-01-30 10:04:03.029048,sitting
-3654,165,976,-393,-1137,-154,2025-01-30 10:04:03.046666,sitting
-3626,168,931,-725,-970,-141,2025-01-30 10:04:03.055590,sitting
-3632,189,871,-848,-1028,-224,2025-01-30 10:04:03.063911,sitting
-3608,215,939,-814,-955,-254,2025-01-30 10:04:03.093123,sitting
-3583,201,949,-695,-674,-208,2025-01-30 10:04:03.108540,sitting
-3634,222,972,-463,-584,-70,2025-01-30 10:04:03.126317,sitting
-3648,198,1038,-360,-691,-16,2025-01-30 10:04:03.141828,sitting
-3666,120,1060,-415,-816,-101,2025-01-30 10:04:03.156486,sitting
-3670,148,1123,-558,-707,-257,2025-01-30 10:04:03.198263,sitting
-3600,146,1081,-602,-332,-309,2025-01-30 10:04:03.213877,sitting
-3611,138,1073,-609,-36,-250,2025-01-30 10:04:03.213877,sitting
-3642,152,994,-571,-84,-164,2025-01-30 10:04:03.227256,sitting
-3741,168,947,-542,-693,-111,2025-01-30 10:04:03.232030,sitting
-3759,217,930,-454,-1188,-246,2025-01-30 10:04:03.257426,sitting
-3691,195,1000,-340,-1325,-379,2025-01-30 10:04:03.267442,sitting
-3617,159,1048,-318,-1058,-390,2025-01-30 10:04:03.289013,sitting
-3535,157,1127,-327,-635,-298,2025-01-30 10:04:03.304637,sitting
-3493,138,1168,-341,-95,-133,2025-01-30 10:04:03.317512,sitting
-3564,77,1103,-300,293,-51,2025-01-30 10:04:03.342212,sitting
-3640,68,1045,-279,290,17,2025-01-30 10:04:03.357432,sitting
-3673,116,1005,-369,159,-56,2025-01-30 10:04:03.366603,sitting
-3699,151,1010,-550,-1,-129,2025-01-30 10:04:03.384818,sitting
-3662,237,1024,-623,-168,-121,2025-01-30 10:04:03.412992,sitting
-3588,229,1081,-554,-143,-70,2025-01-30 10:04:03.420585,sitting
-3578,216,1111,-510,-27,-10,2025-01-30 10:04:03.438893,sitting
-3602,152,1076,-504,-37,-9,2025-01-30 10:04:03.449633,sitting
-3611,135,1078,-503,-95,-42,2025-01-30 10:04:03.464323,sitting
-3653,139,1054,-560,-201,-84,2025-01-30 10:04:03.496569,sitting
-3674,142,1069,-592,-379,-89,2025-01-30 10:04:03.511672,sitting
-3698,209,1056,-521,-385,-100,2025-01-30 10:04:03.513388,sitting
-3679,257,1066,-452,-276,-121,2025-01-30 10:04:03.534735,sitting
-3645,275,1081,-479,-287,-146,2025-01-30 10:04:03.546496,sitting
-3654,238,1083,-721,-795,-81,2025-01-30 10:04:03.563420,sitting
-3663,144,1045,-941,-1226,75,2025-01-30 10:04:03.585634,sitting
-3629,50,1022,-880,-557,-50,2025-01-30 10:04:03.602013,sitting
-3558,117,1093,-755,183,-271,2025-01-30 10:04:03.613055,sitting
-3626,160,1102,-759,-198,-225,2025-01-30 10:04:03.635158,sitting
-3588,205,1149,-668,-347,-148,2025-01-30 10:04:03.648324,sitting
-3577,245,1208,-650,-4,-107,2025-01-30 10:04:03.679755,sitting
-3595,236,1190,-846,-35,-133,2025-01-30 10:04:03.689779,sitting
-3569,177,1145,-825,-6,-169,2025-01-30 10:04:03.695132,sitting
-3525,180,1215,-623,312,-171,2025-01-30 10:04:03.717288,sitting
-3538,202,1172,-692,289,-33,2025-01-30 10:04:03.731224,sitting
-3573,191,1135,-813,-40,129,2025-01-30 10:04:03.745136,sitting
-3586,201,1115,-904,-106,57,2025-01-30 10:04:03.767238,sitting
-3577,199,1124,-936,108,-54,2025-01-30 10:04:03.817953,sitting
-3607,159,1112,-886,348,-142,2025-01-30 10:04:03.817953,sitting
-3631,143,1118,-713,297,-214,2025-01-30 10:04:03.817953,sitting
-3662,105,1147,-565,114,-169,2025-01-30 10:04:03.850068,sitting
-3732,171,1155,-675,-389,-162,2025-01-30 10:04:03.879195,sitting
-3723,181,1105,-781,-657,-247,2025-01-30 10:04:03.879195,sitting
-3637,171,1100,-714,-570,-333,2025-01-30 10:04:03.879195,sitting
-3587,197,1121,-606,-229,-346,2025-01-30 10:04:03.893217,sitting
-3531,213,1110,-577,39,-347,2025-01-30 10:04:03.912647,sitting
-3531,160,1134,-501,201,-290,2025-01-30 10:04:03.926368,sitting
-3621,195,1142,-431,-13,-253,2025-01-30 10:04:03.947209,sitting
-3674,164,1131,-248,-534,-297,2025-01-30 10:04:03.951163,sitting
-3647,143,1158,-211,-866,-392,2025-01-30 10:04:03.982111,sitting
-3614,163,1145,-315,-767,-528,2025-01-30 10:04:04.000088,sitting
-3584,163,1152,-450,-422,-585,2025-01-30 10:04:04.012620,sitting
-3568,207,1228,-605,-367,-603,2025-01-30 10:04:04.029712,sitting
-3536,252,1206,-749,-542,-471,2025-01-30 10:04:04.049699,sitting
-3549,216,1189,-756,-712,-324,2025-01-30 10:04:04.063780,sitting
-3593,242,1146,-756,-767,-257,2025-01-30 10:04:04.102675,sitting
-3613,189,1209,-752,-628,-326,2025-01-30 10:04:04.113734,sitting
-3603,182,1228,-673,-406,-523,2025-01-30 10:04:04.116102,sitting
-3600,126,1327,-650,-63,-818,2025-01-30 10:04:04.133554,sitting
-3597,130,1380,-890,-147,-845,2025-01-30 10:04:04.147715,sitting
-3569,92,1290,-1147,-551,-547,2025-01-30 10:04:04.161770,sitting
-3545,53,1181,-1049,-277,-399,2025-01-30 10:04:04.178998,sitting
-3572,-13,1117,-599,248,-531,2025-01-30 10:04:04.195080,sitting
-3602,-10,1207,-319,66,-691,2025-01-30 10:04:04.211933,sitting
-3628,14,1342,-409,-276,-654,2025-01-30 10:04:04.228590,sitting
-3625,72,1419,-808,-68,-510,2025-01-30 10:04:04.235346,sitting
-3613,89,1243,-1080,-93,-409,2025-01-30 10:04:04.261560,sitting
-3584,62,1066,-908,34,-537,2025-01-30 10:04:04.263541,sitting
-3468,84,1002,-432,307,-655,2025-01-30 10:04:04.279761,sitting
-3455,87,1037,-43,449,-611,2025-01-30 10:04:04.311822,sitting
-3494,103,1182,143,365,-384,2025-01-30 10:04:04.320119,sitting
-3545,84,1392,-91,457,-254,2025-01-30 10:04:04.338341,sitting
-3605,84,1360,-514,847,-289,2025-01-30 10:04:04.346320,sitting
-3674,15,1181,-677,864,-395,2025-01-30 10:04:04.412985,sitting
-3674,26,1124,-399,674,-528,2025-01-30 10:04:04.412985,sitting
-3618,56,1186,-200,702,-563,2025-01-30 10:04:04.412985,sitting
-3578,88,1212,-326,665,-577,2025-01-30 10:04:04.412985,sitting
-3537,108,1106,-303,862,-601,2025-01-30 10:04:04.429407,
-3568,91,1157,-240,1475,-804,2025-01-30 10:04:04.451002,sitting
-3632,123,1241,-404,1269,-926,2025-01-30 10:04:04.473297,sitting
-3704,133,1204,-404,480,-782,2025-01-30 10:04:04.491474,sitting
-3722,167,1219,-174,-718,-641,2025-01-30 10:04:04.505850,sitting
-3577,175,1330,-189,-620,-712,2025-01-30 10:04:04.524673,sitting
-3509,143,1310,-681,611,-856,2025-01-30 10:04:04.538040,sitting
-3498,125,1188,-917,1610,-963,2025-01-30 10:04:04.554812,sitting
-3491,160,1223,-1003,1948,-939,2025-01-30 10:04:04.562810,sitting
-3507,68,1174,-831,1771,-778,2025-01-30 10:04:04.585088,sitting
-3569,-13,1035,-512,1412,-575,2025-01-30 10:04:04.595747,sitting
-3638,-99,1078,-355,1041,-581,2025-01-30 10:04:04.612716,sitting
-3708,-164,1259,-786,919,-847,2025-01-30 10:04:04.645855,sitting
-3675,-71,1277,-1606,819,-977,2025-01-30 10:04:04.657461,sitting
-3640,36,1145,-1755,862,-1110,2025-01-30 10:04:04.712717,sitting
-3620,95,1005,-1298,1425,-1333,2025-01-30 10:04:04.712717,sitting
-3611,143,895,-1022,1364,-1431,2025-01-30 10:04:04.712717,sitting
-3657,99,939,-1068,588,-1241,2025-01-30 10:04:04.712717,sitting
-3636,27,1021,-1160,218,-1013,2025-01-30 10:04:04.741515,sitting
-3717,-27,1095,-1018,452,-1124,2025-01-30 10:04:04.747812,sitting
-3849,-104,1136,-1167,-64,-1473,2025-01-30 10:04:04.762988,sitting
-3807,-112,1145,-1252,-569,-1756,2025-01-30 10:04:04.779432,sitting
-3693,-113,1194,-1295,-430,-1924,2025-01-30 10:04:04.797788,sitting
-3602,-69,1045,-1309,-33,-1890,2025-01-30 10:04:04.814418,sitting
-3465,-181,860,-1082,774,-1528,2025-01-30 10:04:04.853468,sitting
-3502,-167,935,-586,1171,-1214,2025-01-30 10:04:04.853468,sitting
-3536,-126,984,-195,1203,-1097,2025-01-30 10:04:04.864999,sitting
-3647,-184,1108,-177,1567,-1383,2025-01-30 10:04:04.881698,sitting
-3670,-231,1282,-751,1737,-1632,2025-01-30 10:04:04.895279,sitting
-3689,-213,1243,-1385,1758,-1641,2025-01-30 10:04:04.914246,sitting
-3762,-207,1040,-1459,1368,-1722,2025-01-30 10:04:04.930852,sitting
-3728,-184,874,-1094,700,-1740,2025-01-30 10:04:04.947274,sitting
-3648,-176,876,-765,583,-1672,2025-01-30 10:04:04.963927,sitting
-3575,-219,1019,-795,1245,-1685,2025-01-30 10:04:05.005090,sitting
-3590,-204,1148,-1278,2079,-1705,2025-01-30 10:04:05.015046,sitting
-3712,-138,1170,-2070,2560,-1784,2025-01-30 10:04:05.015046,sitting
-3762,0,1082,-2594,2865,-2019,2025-01-30 10:04:05.028746,sitting
-3801,4,934,-2665,2178,-2334,2025-01-30 10:04:05.049695,sitting
-3638,-167,854,-2350,1161,-2319,2025-01-30 10:04:05.061825,sitting
-3521,-435,768,-2054,1022,-2009,2025-01-30 10:04:05.078748,sitting
-3563,-555,767,-2022,789,-1483,2025-01-30 10:04:05.095032,falling
-3779,-530,777,-2135,181,-1092,2025-01-30 10:04:05.111710,falling
-3893,-331,863,-2326,-395,-1154,2025-01-30 10:04:05.148592,falling
-3878,-200,890,-2349,-370,-1554,2025-01-30 10:04:05.161135,falling
-3753,-148,881,-2203,-171,-1933,2025-01-30 10:04:05.162240,falling
-3417,-388,1094,-2177,700,-2104,2025-01-30 10:04:05.181830,falling
-3345,-626,1126,-2458,1741,-1860,2025-01-30 10:04:05.185623,falling
-3523,-765,883,-3071,1725,-1230,2025-01-30 10:04:05.228813,falling
-3732,-701,637,-3138,1233,-986,2025-01-30 10:04:05.228813,falling
-3858,-616,653,-2846,1021,-1272,2025-01-30 10:04:05.240724,falling
-3928,-404,837,-2793,156,-1590,2025-01-30 10:04:05.262134,falling
-3686,-351,876,-3095,-381,-1725,2025-01-30 10:04:05.319773,falling
-3501,-408,861,-3228,808,-1696,2025-01-30 10:04:05.319773,falling
-3523,-501,927,-3344,1166,-1612,2025-01-30 10:04:05.319773,falling
-3664,-591,941,-3762,316,-1380,2025-01-30 10:04:05.326313,falling
-3696,-694,826,-4074,271,-1233,2025-01-30 10:04:05.334572,falling
-3774,-738,801,-4099,900,-1431,2025-01-30 10:04:05.363581,falling
-3868,-758,713,-4071,207,-1735,2025-01-30 10:04:05.376339,falling
-3651,-733,628,-3843,107,-1928,2025-01-30 10:04:05.393203,falling
-3512,-736,689,-3565,412,-1794,2025-01-30 10:04:05.399430,falling
-3476,-690,883,-3599,555,-1353,2025-01-30 10:04:05.418883,falling
-3630,-711,929,-3900,457,-947,2025-01-30 10:04:05.445992,falling
-3729,-720,857,-4472,781,-958,2025-01-30 10:04:05.454144,falling
-3806,-733,651,-4814,1204,-1415,2025-01-30 10:04:05.480002,falling
-3792,-685,593,-4675,990,-2092,2025-01-30 10:04:05.480002,falling
-3653,-740,637,-4386,567,-2316,2025-01-30 10:04:05.496364,falling
